;  Optical constants for amorphous evaporated Si
; 
;   taken from:
;
;   'Handbook of Optical Constants of Solids', Ed. by Edward D. Palik,
;   Academic Press, Inc., 1985.
;   
;    Lambda (A)            n            k
;-----------------------------------------
       247.960      0.995000     0.0235000
       253.020      0.992000     0.0242000
       258.292      0.990000     0.0250000
       263.787      0.988000     0.0258000
       269.522      0.986000     0.0267000
       275.511      0.984000     0.0275000
       281.773      0.981000     0.0285000
       288.326      0.979000     0.0294000
       295.190      0.976000     0.0304000
       302.390      0.973000     0.0314000
       309.950      0.970000     0.0326000
       317.897      0.967000     0.0337000
       326.263      0.963000     0.0350000
       335.081      0.959000     0.0364000
       344.389      0.955000     0.0379000
       354.229      0.950000     0.0395000
       364.647      0.945000     0.0413000
       375.697      0.939000     0.0433000
       387.438      0.933000     0.0455000
       399.935      0.926000     0.0480000
       413.267      0.918000     0.0508000
       427.517      0.909000     0.0541000
       442.786      0.899000     0.0579000
       459.185      0.888000     0.0623000
       476.846      0.876000     0.0675000
       495.920      0.862000     0.0737000
       516.583      0.846000     0.0812000
       539.043      0.828000     0.0903000
       563.545      0.808000      0.101000
       590.381      0.785000      0.115000
       619.900      0.758000      0.132000
       652.526      0.727000      0.154000
       688.778      0.691000      0.181000
       729.294      0.651000      0.216000
       774.875      0.603000      0.261000
       826.533      0.549000      0.321000
       885.571      0.485000      0.403000
       953.692      0.410000      0.519000
       1033.17      0.327000      0.726000
       1078.09      0.363000      0.847000
       1127.09      0.392000      0.946000
       1180.76      0.423000       1.04000
       1239.80      0.459000       1.14000
       1305.05      0.497000       1.24000
       1377.56      0.543000       1.35000
       1458.59      0.597000       1.47000
       1549.75      0.660000       1.60000
       1653.07      0.735000       1.74000
       1771.14      0.832000       1.89000
       1907.38      0.951000       2.07000
       2066.33       1.11000       2.28000
       2254.18       1.35000       2.51000
       2479.60       1.69000       2.76000
       2582.92       1.86000       2.85000
       2695.22       2.07000       2.93000
       2817.73       2.30000       2.99000
       2951.90       2.56000       3.04000
       3099.50       2.87000       3.06000
       3262.63       3.21000       3.00000
       3443.89       3.55000       2.88000
       3542.29       3.73000       2.79000
       3646.47       3.90000       2.66000
       3874.38       4.17000       2.38000
       4132.67       4.38000       2.02000
       4427.86       4.47000       1.64000
       4768.46       4.49000       1.28000
       4959.20       4.47000       1.12000
       5165.83       4.46000      0.969000
       5635.45       4.36000      0.690000
       6199.00       4.23000      0.461000
       6525.26       4.17000      0.363000
       6887.78       4.09000      0.271000
       7292.94       4.01000      0.199000
       7748.75       3.93000      0.136000
       8265.33       3.86000     0.0812000
       8855.71       3.77000     0.0401000
       9536.92       3.68000       0.00000
       10331.7       3.61000       0.00000
       11270.9       3.57000       0.00000
       12398.0       3.54000       0.00000
       13775.6       3.50000       0.00000
       15497.5       3.48000       0.00000
       17711.4       3.45000       0.00000
       20663.3       3.44000       0.00000
       24726.8       3.88000       0.00000
       25199.2       3.87000       0.00000
       26278.1       3.86000       0.00000
       28138.9       3.86000       0.00000
       29505.0       3.85000       0.00000
       31182.1       3.85000       0.00000
       32825.0       3.84000       0.00000
       34173.1       3.85000       0.00000
       35853.1       3.84000       0.00000
       37186.6       3.84000       0.00000
       38419.6       3.82000       0.00000
       40084.1       3.84000       0.00000
       43410.4       3.84000       0.00000
       44294.4       3.81000       0.00000
       45884.5       3.81000       0.00000
       48868.7       3.80000       0.00000
       53301.8       3.80000       0.00000
       54640.8       3.79000       0.00000
       56663.6       3.80000       0.00000
       60330.9       3.79000       0.00000
       64877.0       3.79000       0.00000
       70764.8       3.78000       0.00000
       77390.8       3.77000       0.00000
       83883.6       3.75000       0.00000
       87494.7       3.72000       0.00000
       96557.6       3.71000       0.00000
       104713.       3.74000       0.00000
       112098.       3.75000       0.00000
       122874.       3.75000       0.00000
       129456.       3.73000       0.00000
       140966.       3.73000       0.00000
       157036.       3.73000       0.00000
       167292.       3.67000    0.00283000
       179473.       3.62000       0.00000
       208265.       3.62000       0.00000
       237237.       3.62000       0.00000
       275756.       3.68000       0.00000
       355142.       3.74000       0.00000
