;  Optical constants for cubic ZnSe
; 
;   taken from:
;
;   'Handbook of Optical Constants of Solids II', Ed. by Edward D. Palik,
;   Academic Press, Inc., 1991.
;   
;    Lambda (A)            n            k
;-----------------------------------------
       6.19900      0.999800   7.00000e-05
       6.69800      0.999800   9.60000e-05
       7.30153      0.999800   0.000132000
       7.70062      0.999800   0.000144000
       8.49760      0.999800   0.000200000
       8.70035      0.999800   9.80000e-05
       8.90022      0.999600   0.000122000
       9.09611      0.999600   0.000132000
       9.99839      0.999600   0.000180000
       10.8091      0.999600   0.000224000
       12.0019      0.999600   0.000300000
       12.4992      0.999400   0.000100000
       13.0988      0.999200   0.000122000
       14.9988      0.999000   0.000200000
       15.1992      0.999000   0.000202000
       16.2981      0.998800   0.000254000
       17.0983      0.998600   0.000296000
       18.3974      0.998400   0.000369000
       19.9968      0.998200   0.000480000
       23.3969      0.997400   0.000796000
       29.9976      0.996000    0.00169000
       33.6994      0.995200    0.00236000
       39.9935      0.993800    0.00374000
       46.0892      0.992400    0.00548000
       49.9919      0.991800    0.00662000
       54.5927      0.990800    0.00812000
       59.9806      0.990000     0.0100000
       64.9790      0.989800     0.0118000
       70.0056      0.989000     0.0136000
       79.9871      0.988600     0.0171000
       82.6533       1.00000     0.0150000
       88.5571       1.00000     0.0160000
       91.1618       1.00000     0.0200000
       95.3692       1.00000     0.0200000
       99.1840       1.00000     0.0210000
       103.317       1.00000     0.0220000
       107.809       1.00000     0.0230000
       112.709       1.00000     0.0240000
       123.980       1.00000     0.0260000
       133.312       1.00000     0.0280000
       137.756       1.00000     0.0290000
       145.859       1.00000     0.0240000
       154.975       1.00000     0.0260000
       165.307       1.00000     0.0260000
       177.114       1.00000     0.0270000
       206.633       1.00000     0.0340000
       247.960       1.00000     0.0330000
       309.950       1.00000     0.0350000
       330.613       1.00000     0.0380000
       413.267      0.900000     0.0500000
       495.920      0.860000     0.0800000
       619.900      0.840000      0.150000
       826.533      0.760000      0.250000
       991.840      0.810000      0.430000
       1239.80      0.700000      0.650000
       1549.75      0.920000      0.810000
       1771.14      0.760000       1.28000
       1907.38      0.890000       1.65000
       2066.33       1.40000       1.40000
       2254.18       1.46000       1.41000
       2479.60       1.43000       1.86000
       2755.11       2.16000       1.73000
       3099.50       2.57000       1.00000
       3542.29       2.43000      0.820000
       4132.67       2.68000      0.500000
       4999.19       2.74200       0.00000
       7500.30       2.57820       0.00000
       9998.39       2.48900       0.00000
       12500.5       2.46810       0.00000
       14998.8       2.45710       0.00000
       17498.9       2.45060       0.00000
       20000.0       2.44620       0.00000
       22500.9       2.44320       0.00000
       25001.0       2.44090       0.00000
       27496.1       2.43910       0.00000
       29997.6       2.43760       0.00000
       35002.8       2.43520       0.00000
       39993.5       2.43310       0.00000
       45001.8       2.43130       0.00000
       49991.9       2.42950       0.00000
       55004.4       2.42770       0.00000
       60009.7       2.42580       0.00000
       64979.0       2.42390       0.00000
       70005.6       2.42180       0.00000
       75003.0       2.41960       0.00000
       79987.1       2.41730       0.00000
       84976.0       2.41480       0.00000
       89971.0       2.41220       0.00000
       95003.8       2.40930       0.00000
       99983.9       2.40650       0.00000
       104979.       2.40340       0.00000
       110009.       2.40010   1.10000e-07
       115009.       2.39660       0.00000
       120019.       2.39290       0.00000
       124992.       2.38900   6.00000e-06
       129985.       2.38490       0.00000
       134996.       2.38060       0.00000
       139995.       2.37610       0.00000
       144989.       2.37130   4.60000e-06
       149988.       2.36630       0.00000
       154975.       2.36100       0.00000
       159995.       2.35550       0.00000
       164977.       2.34960   8.50000e-05
       169975.       2.34350       0.00000
       174989.       2.33710       0.00000
       179994.       2.33030   0.000110000
       200000.       2.33000   0.000480000
       217394.       2.30000    0.00170000
       240972.       2.28000     0.0200000
       250010.       2.25000    0.00600000
       299976.       2.15000    0.00700000
       350028.       1.60000     0.0210000
       399936.       1.01000      0.320000
       450018.      0.430000       2.90000
       460037.      0.580000       3.62000
       469977.       1.16000       4.93000
       475019.       2.10000       6.10000
       479984.       3.19000       6.67000
       485055.       3.20000       6.20000
       490040.       7.54000       3.62000
       491010.       7.68000       2.52000
       494930.       6.75000       1.83000
       499919.       6.09000      0.870000
       509996.       5.07000      0.580000
       520050.       4.64000      0.430000
       530056.       4.29000      0.230000
       539983.       4.00000      0.180000
       550044.       3.83000      0.140000
       575046.       3.71000      0.110000
       600097.       3.54000     0.0800000
       700056.       3.04000       0.00000
       799871.       2.90000       0.00000
   1.50151e+06       3.07000       0.00000
   2.00000e+06       3.04000       0.00000
   2.50010e+06       3.03000       0.00000
   2.99976e+06       3.02000       0.00000
   3.50028e+06       3.02000       0.00000
   3.99935e+06       3.01000       0.00000
   4.50018e+06       3.01000       0.00000
   4.99919e+06       3.01000       0.00000
