;  Optical constants for Cu2O
; 
;   taken from:
;
;   'Handbook of Optical Constants of Solids II', Ed. by Edward D. Palik,
;   Academic Press, Inc., 1991.
;   
;    Lambda (A)            n            k
;-----------------------------------------
       2999.76       2.00000       1.85000
       3500.28       2.40000       1.44000
       3999.35       2.80000      0.990000
       4498.55       3.06000      0.600000
       4999.19       3.12000      0.350000
       5498.00       3.10000      0.190000
       5998.06       3.02000      0.130000
       6497.90       2.90000      0.100000
       7000.56       2.83000     0.0830000
       7500.30       2.77000     0.0700000
       7998.71       2.70000     0.0600000
       8497.60       2.66000     0.0530000
       8997.10       2.63000     0.0480000
       9500.38       2.61000     0.0430000
       9998.39       2.60000     0.0400000
       11000.9       2.59000     0.0330000
       12001.9       2.58000     0.0270000
       12995.8       2.57000     0.0210000
       13993.2       2.57000     0.0170000
       14991.5       2.57000     0.0130000
       19996.8       2.56000    0.00200000
       24996.0       2.56000       0.00000
       30019.4       2.55000       0.00000
       39993.5       2.54000       0.00000
       49991.9       2.53000       0.00000
       59893.7       2.52000       0.00000
       70045.2       2.51000       0.00000
       79987.1       2.50000       0.00000
       89840.6       2.48000       0.00000
       99983.9       2.46000       0.00000
       109717.       2.42000       0.00000
       120369.       2.37000       0.00000
       129958.       2.29000       0.00000
       139932.       2.15000     0.0400000
       149915.       1.79000      0.130000
       154975.       1.13000      0.460000
       157936.      0.920000       1.68000
       159974.       1.09000       2.52000
       162917.       2.94000       3.49000
       164867.       4.71000       2.27000
       170069.       3.78000      0.420000
       174866.       3.42000      0.170000
       179942.       3.21000     0.0800000
       189862.       2.98000     0.0400000
       199968.       2.89000       0.00000
       210136.       2.82000       0.00000
       219823.       2.79000       0.00000
       230019.       2.77000       0.00000
       239807.       2.76000       0.00000
       249960.       2.75000       0.00000
       300194.       2.75000       0.00000
       350226.       2.75000       0.00000
       399936.       2.75000       0.00000
       454139.       2.75000    0.00500000
       499919.       2.74000    0.00600000
       555964.       2.72000    0.00600000
       587583.       2.66000    0.00900000
       626162.       2.42000     0.0170000
       645729.       2.18000     0.0500000
       659468.       1.81000      0.100000
       666559.       1.19000      0.590000
       672343.      0.890000       1.88000
       680088.       3.37000       3.97000
       681583.       4.56000       4.37000
       684972.       5.56000       2.78000
       694177.       3.97000      0.200000
       704032.       3.47000     0.0800000
       714170.       3.21000     0.0400000
       770062.       2.98000     0.0130000
       832081.       2.92000     0.0100000
       911618.       2.84000    0.00800000
