;  Optical constants for Ir
; 
;   taken from:
;
;   D. L. Windt, Webster C. Cash, Jr., M. Scott, P. Arendt, B. Newnam,
;   R. F. Fisher, and A. B. Swartzlander, 'Optical Constants for thin films
;   of Ti, Zr, Nb, Mo, Ru, Rh, Pd, Ag, Hf, Ta, W, Re, Ir, Os, Pt, and Au
;   from 24 to 1216 A', App. Opt., 27, 246, 1988.
;   
;    Lambda (A)            n            k
;-----------------------------------------
   23.620      .99477	.00521
   31.600      .99506	.00317
   44.700      .99116	.01094
   67.600      .9845	.0139	
   114.00      .9359	.0186	
   135.50      .893	.0532	
   171.40      .858	.175	
   243.03      .868	.226	
   256.32      .900	.170
   303.78      .779	.159
   327.00      .723	.208
   356.80      .648	.323
   379.31      .624	.413
   405.85      .651	.534
   447.81      .657	.613
   460.73      .658	.662
   489.50      .714	.753
   539.09      .759	.911
   584.33      .838	.999
   616.29      .910	.986
   671.39      1.14	1.004
   718.48      1.066	.805	
   735.90      1.079	.865	
   743.72      1.091	.856	
   834.46      .976	.885
   878.00      1.095	.934
   919.78      1.062	.953
   932.05      1.003	.951
   988.78      1.23	1.04
   1025.8      1.08	1.05
   1048.2      1.138	1.097
   1066.7      1.14	1.09	
   1085.7      1.195	1.158	
   1135.0      1.27	1.16	
   1200.7      1.31	1.12	
   1215.7      1.42	1.13	
