;  Optical constants for MgO
;  
;  Concatenation of:
;
;  MgO_llnl_cxro + MgO_palik
;
;    Lambda (A)            n            k
;-----------------------------------------
      0.12398425       0.99999993    3.4069560e-12
      0.12523662       0.99999992    3.5555211e-12
      0.12651454       0.99999992    3.7118211e-12
      0.12848109       0.99999992    3.9632693e-12
      0.13050974       0.99999992    4.2351403e-12
      0.13189814       0.99999992    4.4298866e-12
      0.13331640       0.99999991    4.6353277e-12
      0.13550191       0.99999991    4.9670905e-12
      0.13776028       0.99999991    5.3273611e-12
      0.13930815       0.99999991    5.5864160e-12
      0.14089119       0.99999990    5.8605558e-12
      0.14333439       0.99999990    6.3050996e-12
      0.14586382       0.99999990    6.7901532e-12
      0.14760030       0.99999990    7.1404405e-12
      0.14937861       0.99999989    7.5123230e-12
      0.15212791       0.99999989    8.1182915e-12
      0.15498031       0.99999988    8.7829999e-12
      0.15634836       0.99999988    9.1176416e-12
      0.15774078       0.99999988    9.4674001e-12
      0.16078881       0.99999988    1.0269743e-11
      0.16313717       0.99999987    1.0922609e-11
      0.16421755       0.99999987    1.1233650e-11
      0.16540055       0.99999987    1.1581386e-11
      0.16868605       0.99999986    1.2593708e-11
      0.17220035       0.99999986    1.3744529e-11
      0.17462570       0.99999985    1.4587856e-11
      0.17712036       0.99999985    1.5492920e-11
      0.17968732       0.99999985    1.6470691e-11
      0.18232978       0.99999984    1.7522187e-11
      0.18395289       0.99999984    1.8194762e-11
      0.18552185       0.99999983    1.8862195e-11
      0.18813998       0.99999983    2.0020546e-11
      0.19074500       0.99999983    2.1222378e-11
      0.19372539       0.99999982    2.2669195e-11
      0.19680040       0.99999981    2.4234047e-11
      0.19901164       0.99999981    2.5413292e-11
      0.20160041       0.99999981    2.6845020e-11
      0.20392146       0.99999980    2.8184301e-11
      0.20664042       0.99999980    2.9812581e-11
      0.20733152       0.99999979    3.0237934e-11
      0.20823690       0.99999979    3.0801550e-11
      0.21193889       0.99999978    3.3191281e-11
      0.21376595       0.99999978    3.4421703e-11
      0.21551234       0.99999978    3.5629938e-11
      0.21828213       0.99999977    3.7612498e-11
      0.22140045       0.99999976    3.9944343e-11
      0.22542591       0.99999976    4.3115882e-11
      0.22960046       0.99999975    4.6600324e-11
      0.23393255       0.99999974    5.0439725e-11
      0.23616048       0.99999973    5.2508282e-11
      0.23843125       0.99999973    5.4677863e-11
      0.24074612       0.99999972    5.6964452e-11
      0.24310637       0.99999972    5.9364947e-11
      0.24551337       0.99999971    6.1897576e-11
      0.24796850       0.99999971    6.4558934e-11
      0.25047323       0.99999970    6.7361947e-11
      0.25302908       0.99999969    7.0317095e-11
      0.25563763       0.99999969    7.3438155e-11
      0.25830052       0.99999968    7.6723968e-11
      0.26101947       0.99999967    8.0202326e-11
      0.26379628       0.99999967    8.3868372e-11
      0.26663280       0.99999966    8.7748886e-11
      0.26953098       0.99999965    9.1853885e-11
      0.27369592       0.99999964    9.8008009e-11
      0.27861629       0.99999963    1.0566798e-10
      0.28306906       0.99999962    1.1298019e-10
      0.28833547       0.99999960    1.2212015e-10
      0.29310697       0.99999959    1.3087887e-10
      0.29875723       0.99999957    1.4186135e-10
      0.30166484       0.99999956    1.4778518e-10
      0.30388297       0.99999956    1.5242008e-10
      0.30689171       0.99999955    1.5889900e-10
      0.30996062       0.99999954    1.6570537e-10
      0.31388418       0.99999953    1.7474179e-10
      0.31790833       0.99999952    1.8439570e-10
      0.32203701       0.99999950    1.9471763e-10
      0.32627434       0.99999949    2.0576411e-10
      0.33062467       0.99999948    2.1755809e-10
      0.33509257       0.99999946    2.3019993e-10
      0.33968288       0.99999945    2.4376367e-10
      0.34411393       0.99999943    2.5742675e-10
      0.34729482       0.99999942    2.6760331e-10
      0.35123017       0.99999941    2.8058239e-10
      0.35525573       0.99999939    2.9437936e-10
      0.35937464       0.99999938    3.0897371e-10
      0.36359018       0.99999937    3.2449484e-10
      0.36681731       0.99999935    3.3677315e-10
      0.37121033       0.99999934    3.5405278e-10
      0.37570985       0.99999932    3.7244303e-10
      0.38031979       0.99999931    3.9199493e-10
      0.38385217       0.99999929    4.0749819e-10
      0.38866536       0.99999927    4.2937050e-10
      0.39360079       0.99999926    4.5271102e-10
      0.39738542       0.99999924    4.7125842e-10
      0.40254627       0.99999922    4.9747514e-10
      0.40784293       0.99999920    5.2551926e-10
      0.41328083       0.99999918    5.6506446e-10
      0.41996528       0.99999915    6.0414420e-10
      0.42675785       0.99999913    6.4591098e-10
      0.43365996       0.99999910    6.9053916e-10
      0.44067464       0.99999907    7.3822797e-10
      0.44780188       0.99999904    7.8918962e-10
      0.45504485       0.99999901    8.4364568e-10
      0.46240522       0.99999897    9.0183064e-10
      0.46988471       0.99999894    9.6400569e-10
      0.47748323       0.99999890    1.0304300e-09
      0.48520618       0.99999887    1.1014070e-09
      0.49305362       0.99999883    1.1772373e-09
      0.50102946       0.99999879    1.2582649e-09
      0.50913375       0.99999875    1.3448291e-09
      0.51736847       0.99999871    1.4373066e-09
      0.52573570       0.99999867    1.5361064e-09
      0.53423986       0.99999863    1.6416630e-09
      0.54288101       0.99999858    1.7544332e-09
      0.55166142       0.99999854    1.8748955e-09
      0.56058349       0.99999849    2.0035794e-09
      0.56964967       0.99999844    2.1410518e-09
      0.57886523       0.99999839    2.2879279e-09
      0.58822755       0.99999834    2.4448006e-09
      0.59774203       0.99999828    2.6123813e-09
      0.60740863       0.99999823    2.7913803e-09
      0.61723320       0.99999817    2.9825967e-09
      0.62721577       0.99999811    3.1864576e-09
      0.63736268       0.99999805    3.4045314e-09
      0.64767070       0.99999798    3.6373371e-09
      0.65814639       0.99999792    3.8859121e-09
      0.66878971       0.99999785    4.1512828e-09
      0.67960781       0.99999778    4.4346178e-09
      0.69060079       0.99999771    4.7370939e-09
      0.70176851       0.99999763    5.0599497e-09
      0.71312284       0.99999755    5.4046943e-09
      0.72465574       0.99999747    5.7725900e-09
      0.73637533       0.99999739    6.1652892e-09
      0.74828597       0.99999730    6.5844724e-09
      0.76038766       0.99999722    7.0318252e-09
      0.77268974       0.99999713    7.5093895e-09
      0.78518752       0.99999703    8.0189859e-09
      0.79788566       0.99999693    8.5628055e-09
      0.81078912       0.99999683    9.1431400e-09
      0.82390321       0.99999673    9.7624841e-09
      0.83722795       0.99999662    1.0423331e-08
      0.85077472       0.99999651    1.1128660e-08
      0.86453191       0.99999640    1.1881043e-08
      0.87851717       0.99999628    1.2683969e-08
      0.89272445       0.99999616    1.3540532e-08
      0.90716643       0.99999603    1.4454512e-08
      0.92183655       0.99999590    1.5429465e-08
      0.93674824       0.99999577    1.6469702e-08
      0.95189443       0.99999563    1.7579194e-08
      0.96729692       0.99999549    1.8763174e-08
      0.98294103       0.99999534    2.0025850e-08
      0.99884192       0.99999519    2.1372907e-08
       1.0149914       0.99999503    2.2809350e-08
       1.0314143       0.99999486    2.4342034e-08
       1.0480937       0.99999470    2.5976314e-08
       1.0650470       0.99999452    2.7719550e-08
       1.0822742       0.99999434    2.9578685e-08
       1.0997751       0.99999416    3.1561084e-08
       1.1175592       0.99999397    3.3675194e-08
       1.1356365       0.99999377    3.5930007e-08
       1.1540074       0.99999356    3.8334361e-08
       1.1726719       0.99999335    4.0898273e-08
       1.1916406       0.99999313    4.3632108e-08
       1.2109138       0.99999291    4.6546962e-08
       1.2305030       0.99999268    4.9654757e-08
       1.2504021       0.99999244    5.2968206e-08
       1.2706260       0.99999219    5.6499715e-08
       1.2911771       0.99999193    6.0266147e-08
       1.3120610       0.99999167    6.4280397e-08
       1.3332830       0.99999139    6.8560165e-08
       1.3548474       0.99999111    7.3123878e-08
       1.3767614       0.99999082    7.7985854e-08
       1.3990297       0.99999052    8.3170523e-08
       1.4216568       0.99999020    8.8695220e-08
       1.4446523       0.99998988    9.4584525e-08
       1.4680180       0.99998955    1.0085973e-07
       1.4917624       0.99998921    1.0754878e-07
       1.5158889       0.99998885    1.1467706e-07
       1.5404086       0.99998848    1.2227461e-07
       1.5653233       0.99998811    1.3037019e-07
       1.5906408       0.99998771    1.3899668e-07
       1.6163693       0.99998731    1.4818841e-07
       1.6425127       0.99998689    1.5798213e-07
       1.6690775       0.99998646    1.6841928e-07
       1.6960747       0.99998602    1.7953415e-07
       1.7235068       0.99998556    1.9138040e-07
       1.7513829       0.99998508    2.0400017e-07
       1.7797106       0.99998459    2.1744561e-07
       1.8084974       0.99998408    2.3176670e-07
       1.8377457       0.99998356    2.4701796e-07
       1.8674717       0.99998302    2.6326824e-07
       1.8976755       0.99998246    2.8057853e-07
       1.9283713       0.99998188    2.9901391e-07
       1.9595592       0.99998128    3.1864641e-07
       1.9912542       0.99998066    3.3955528e-07
       2.0234629       0.99998003    3.6182552e-07
       2.0561883       0.99997937    3.8553739e-07
       2.0894473       0.99997869    4.1078949e-07
       2.1232398       0.99997798    4.3768161e-07
       2.1575837       0.99997726    4.6630097e-07
       2.1924790       0.99997651    4.9680522e-07
       2.2279410       0.99997573    5.2922881e-07
       2.2639777       0.99997493    5.6378446e-07
       2.3005973       0.99997411    6.0056684e-07
       2.3378081       0.99997325    6.3975046e-07
       2.3756186       0.99997237    6.8140725e-07
       2.4140424       0.99997146    7.2579106e-07
       2.4530886       0.99997051    7.7300081e-07
       2.4927620       0.99996954    8.2324957e-07
       2.5330824       0.99996854    8.7675370e-07
       2.5740550       0.99996750    9.3367452e-07
       2.6156849       0.99996642    9.9422830e-07
       2.6579939       0.99996532    1.0586806e-06
       2.7009877       0.99996417    1.1272737e-06
       2.7446721       0.99996299    1.2002044e-06
       2.7890648       0.99996177    1.2778400e-06
       2.8341719       0.99996050    1.3604383e-06
       2.8800192       0.99995920    1.4483010e-06
       2.9266003       0.99995785    1.5417338e-06
       2.9739352       0.99995646    1.6411081e-06
       3.0220307       0.99995503    1.7468188e-06
       3.0709086       0.99995354    1.8592718e-06
       3.1205844       0.99995201    1.9788738e-06
       3.1710581       0.99995043    2.1059708e-06
       3.2223454       0.99994879    2.2410770e-06
       3.2744626       0.99994711    2.3847078e-06
       3.3274268       0.99994536    2.5374113e-06
       3.3812472       0.99994356    2.6996381e-06
       3.4359325       0.99994170    2.8721222e-06
       3.4915109       0.99993978    3.0554150e-06
       3.5479825       0.99993780    3.2501373e-06
       3.6053672       0.99993575    3.4570032e-06
       3.6636748       0.99993364    3.6767984e-06
       3.7229377       0.99993146    3.9102930e-06
       3.7831564       0.99992921    4.1583620e-06
       3.8443417       0.99992688    4.4218525e-06
       3.9065168       0.99992448    4.7016418e-06
       3.9697063       0.99992200    4.9988389e-06
       4.0339103       0.99991945    5.3144242e-06
       4.0991543       0.99991681    5.6494879e-06
       4.1654656       0.99991408    6.0051868e-06
       4.2328301       0.99991127    6.3828203e-06
       4.3012899       0.99990838    6.7837062e-06
       4.3708599       0.99990538    7.2091704e-06
       4.4415557       0.99990230    7.6607168e-06
       4.5133926       0.99989912    8.1398779e-06
       4.5864037       0.99989584    8.6483799e-06
       4.6605890       0.99989245    9.1879046e-06
       4.7359651       0.99988896    9.7600011e-06
       4.8125674       0.99988537    1.0366802e-05
       4.8903959       0.99988166    1.1010532e-05
       4.9695078       0.99987784    1.1693251e-05
       5.0498841       0.99987390    1.2417512e-05
       5.1315648       0.99986984    1.3184959e-05
       5.2145492       0.99986567    1.3998136e-05
       5.2989025       0.99986136    1.4860846e-05
       5.3846029       0.99985694    1.5774769e-05
       5.4716958       0.99985238    1.6743298e-05
       5.5602058       0.99984769    1.7769552e-05
       5.6501326       0.99984286    1.8856286e-05
       5.7415267       0.99983790    2.0007692e-05
       5.8343882       0.99983280    2.1226777e-05
       5.9287432       0.99982756    2.2517520e-05
       6.0246483       0.99982218    2.3884728e-05
       6.1220744       0.99981667    2.5330453e-05
       6.2211108       0.99981100    2.6832143e-05
       6.3217276       0.99980517    2.8439005e-05
       6.4239878       0.99979919    3.0141981e-05
       6.5278919       0.99979306    3.1946763e-05
       6.6334728       0.99978679    3.3859697e-05
       6.7407656       0.99978037    3.5887550e-05
       6.8497693       0.99977382    3.8036413e-05
       6.9605584       0.99976713    4.0313960e-05
       7.0731335       0.99976032    4.2716978e-05
       7.1875344       0.99975341    4.5247603e-05
       7.3038032       0.99974637    4.7879575e-05
       7.4219400       0.99973919    5.0664893e-05
       7.5419881       0.99973192    5.3612546e-05
       7.6639458       0.99972456    5.6730812e-05
       7.7879065       0.99971714    6.0031666e-05
       7.9138715       0.99970970    6.3525021e-05
       8.0418913       0.99970227    6.7221712e-05
       8.1719659       0.99969492    7.1133733e-05
       8.3041479       0.99968770    7.5273277e-05
       8.4384358       0.99968073    7.9648063e-05
       8.5749435       0.99967413    8.4277180e-05
       8.7136125       0.99966813    8.9174060e-05
       8.8545632       0.99966303    9.4357770e-05
       8.9977974       0.99965942    9.9842175e-05
       9.1433138       0.99965841    0.00010564379
       9.2911768       0.99966281    0.00011178369
       9.4414555       0.99968539    0.00011828134
       9.5145614       0.99981409    0.00012153066
       9.5160220       0.99981410    3.1757923e-05
       9.5941507       0.99967676    3.2720766e-05
       9.7493355       0.99963618    3.4727257e-05
       9.9070893       0.99961057    3.6850339e-05
       10.067334       0.99958894    3.9097189e-05
       10.230146       0.99956894    4.1476070e-05
       10.395607       0.99954964    4.3999999e-05
       10.563718       0.99953063    4.6677253e-05
       10.734567       0.99951164    4.9517536e-05
       10.908249       0.99949251    5.2530999e-05
       11.084670       0.99947315    5.5726885e-05
       11.263923       0.99945346    5.9117630e-05
       11.446109       0.99943339    6.2714896e-05
       11.631229       0.99941290    6.6530855e-05
       11.819393       0.99939195    7.0579275e-05
       12.010603       0.99937051    7.4848713e-05
       12.204856       0.99934855    7.9350980e-05
       12.402208       0.99932618    8.4157936e-05
       12.602805       0.99930287    8.8839101e-05
       12.806650       0.99927886    9.4273444e-05
       13.013782       0.99925439    0.00010001735
       13.224267       0.99922934    0.00010613224
       13.438163       0.99920371    0.00011252014
       13.655510       0.99917734    0.00011912977
       13.876385       0.99915020    0.00012613930
       14.100833       0.99912230    0.00013354866
       14.328900       0.99909356    0.00014137840
       14.560653       0.99906401    0.00014978981
       14.796157       0.99903367    0.00015872972
       15.035483       0.99900260    0.00016835278
       15.278668       0.99897088    0.00017856848
       15.525784       0.99893843    0.00018936446
       15.776908       0.99890531    0.00020084398
       16.032080       0.99887159    0.00021286638
       16.291381       0.99883709    0.00022547316
       16.554896       0.99880186    0.00023881068
       16.822646       0.99876590    0.00025284817
       17.094744       0.99872930    0.00026778152
       17.371237       0.99869221    0.00028353605
       17.652220       0.99865482    0.00029992260
       17.937718       0.99861664    0.00031671188
       18.227858       0.99857740    0.00033461092
       18.522667       0.99853738    0.00035399200
       18.822253       0.99849766    0.00037540163
       19.126701       0.99845849    0.00039799156
       19.436071       0.99842023    0.00042170080
       19.750420       0.99838282    0.00044626821
       20.069873       0.99834640    0.00047193816
       20.394494       0.99831166    0.00049897145
       20.724350       0.99827962    0.00052764117
       21.059540       0.99825189    0.00055793202
       21.400172       0.99823069    0.00058991417
       21.746320       0.99822048    0.00062393035
       22.098019       0.99823098    0.00066012529
       22.455464       0.99829114    0.00069843814
       22.818655       0.99884740    0.00073903393
       22.824788       0.99899719    0.00073973590
       22.833195       0.99899718    0.00021729270
       23.187715       0.99821825    0.00022992237
       23.562773       0.99804553    0.00024379766
       23.943873       0.99791591    0.00025846188
       24.331152       0.99780145    0.00027403598
       24.724703       0.99769368    0.00029051016
       25.124575       0.99758889    0.00030796083
       25.530967       0.99748510    0.00032640777
       25.943881       0.99738114    0.00034592142
       26.363529       0.99727623    0.00036660524
       26.789912       0.99716983    0.00038844052
       27.223259       0.99706146    0.00041156927
       27.663570       0.99695086    0.00043605621
       28.111028       0.99683779    0.00046197075
       28.565693       0.99672198    0.00048935133
       29.027695       0.99660324    0.00051831435
       29.497164       0.99648143    0.00054895362
       29.974313       0.99635634    0.00058129609
       30.459069       0.99622786    0.00061546421
       30.951724       0.99609580    0.00065155271
       31.452358       0.99595999    0.00068962441
       31.961129       0.99582035    0.00072991767
       32.478035       0.99567675    0.00077232278
       33.003325       0.99552898    0.00081717457
       33.537174       0.99537696    0.00086449399
       34.079583       0.99522059    0.00091439160
       34.630828       0.99505971    0.00096702923
       35.190907       0.99489418     0.0010225372
       35.760114       0.99472389     0.0010811213
       36.338557       0.99454876     0.0011428316
       36.926230       0.99436865     0.0012078130
       37.523455       0.99418329     0.0012763168
       38.130463       0.99399271     0.0013486243
       38.747137       0.99379688     0.0014245950
       39.373829       0.99359537     0.0015046120
       40.010665       0.99338841     0.0015890105
       40.657906       0.99317566     0.0016775895
       41.315413       0.99295703     0.0017709141
       41.983729       0.99273242     0.0018691320
       42.662715       0.99250181     0.0019722779
       43.352804       0.99226493     0.0020807392
       44.053998       0.99202178     0.0021946939
       44.766606       0.99177221     0.0023143837
       45.490627       0.99151612     0.0024399647
       46.226385       0.99125329     0.0025717134
       46.974051       0.99098356     0.0027099965
       47.733800       0.99070682     0.0028551309
       48.505812       0.99042315     0.0030074159
       49.290465       0.99013219     0.0031668409
       50.087563       0.98983367     0.0033340594
       50.897699       0.98952761     0.0035093498
       51.721092       0.98921268     0.0036929008
       52.557524       0.98888937     0.0038876518
       53.407647       0.98856038     0.0040925191
       54.271466       0.98822427     0.0043072291
       55.149211       0.98788117     0.0045322109
       56.041372       0.98753085     0.0047676603
       56.947698       0.98717317     0.0050139790
       57.868691       0.98680816     0.0052719636
       58.804899       0.98643601     0.0055419546
       59.755765       0.98605678     0.0058240096
       60.722419       0.98567025     0.0061194565
       61.704582       0.98527705     0.0064282092
       62.702545       0.98487733     0.0067509219
       63.716615       0.98447130     0.0070879747
       64.747453       0.98405916     0.0074401661
       65.794382       0.98364212     0.0078077569
       66.858775       0.98322034     0.0081913136
       67.939926       0.98279750     0.0085921433
       69.038928       0.98237619     0.0089975111
       70.155805       0.98194070     0.0094139144
       71.290142       0.98149596     0.0098466925
       72.443557       0.98104306      0.010296948
       73.615234       0.98058327      0.010764724
       74.805571       0.98011701      0.011250628
       76.015922       0.97964402      0.011755236
       77.245385       0.97916512      0.012278969
       78.494394       0.97868057      0.012822415
       79.763927       0.97819053      0.013386493
       81.054529       0.97769512      0.013971562
       82.365143       0.97719544      0.014578019
       83.697362       0.97669144      0.015206798
       85.051209       0.97618355      0.015858061
       86.426674       0.97567211      0.016532493
       87.824958       0.97515725      0.017231052
       89.245456       0.97463993      0.017954029
       90.688774       0.97412037      0.018702042
       92.155562       0.97359776      0.019475727
       93.645815       0.97307434      0.020280670
       95.160950       0.97255391      0.021113055
       96.700269       0.97203626      0.021972811
       98.263721       0.97152126      0.022859185
       99.853623       0.97100797      0.023775272
       101.46841       0.97050002      0.024722069
       103.10969       0.96999872      0.025698229
       104.77749       0.96950352      0.026703874
       106.47177       0.96901613      0.027741488
       108.19436       0.96853957      0.028812291
       109.94436       0.96807606      0.029912536
       111.72269       0.96762429      0.031043381
       113.52933       0.96718641      0.032207322
       115.36531       0.96676694      0.033405670
       117.23170       0.96636767      0.034634444
       119.12742       0.96598934      0.035897270
       121.05473       0.96563981      0.037197090
       123.01245       0.96532601      0.038522496
       125.00202       0.96505573      0.039884743
       127.02380       0.96484031      0.041227634
       129.07833       0.96462552      0.042581030
       131.16612       0.96443454      0.043955190
       133.28759       0.96427031      0.045353815
       135.44344       0.96413976      0.046777513
       137.63411       0.96405416      0.048225488
       139.86020       0.96401824      0.049687506
       142.12233       0.96403825      0.051174530
       144.42114       0.96413730      0.052692213
       146.75697       0.96443468      0.054259191
       149.13066       0.96486832      0.055459338
       151.54275       0.96516517      0.056585648
       153.99379       0.96541149      0.057677125
       156.48452       0.96561030      0.058713280
       159.01553       0.96575084      0.059786185
       161.58742       0.96594751      0.060897269
       164.20102       0.96630549      0.061866906
       166.85698       0.96654112      0.062474197
       169.55575       0.96635651      0.063125728
       172.29822       0.96603140      0.063975174
       175.08487       0.96574880      0.065012975
       177.91666       0.96551264      0.066100227
       180.79436       0.96532703      0.067245153
       183.71875       0.96527489      0.068442985
       186.69009       0.96531307      0.069349874
       189.70977       0.96516057      0.070165567
       192.77807       0.96484541      0.071048167
       195.89617       0.96447359      0.072000649
       199.06468       0.96407366      0.073025609
       202.28423       0.96367343      0.074125985
       205.55611       0.96332636      0.075304891
       208.88101       0.96319126      0.076565552
       212.25927       0.96311407      0.077261428
       215.69230       0.96265469      0.077997256
       219.18124       0.96204611      0.078857633
       222.72606       0.96137682      0.079844996
       226.32876       0.96071154      0.080962573
       229.98932       0.96010703      0.082212854
       233.70942       0.95965961      0.083599928
       237.48951       0.95950744      0.085126687
       241.33046       0.95995244      0.086797046
       245.23365       0.96178483      0.088615160
       249.20055       0.96972835      0.090585996
       249.96825       0.97601551      0.090982907
       250.98026       0.97521196      0.068537574
       253.23115       0.96137276      0.070219798
       257.32697       0.95262447      0.073020635
       261.48905       0.94705655      0.075780509
       265.71850       0.94256997      0.078645413
       270.01583       0.93864875      0.081674786
       274.38339       0.93511414      0.084829740
       278.82118       0.93184060      0.088106742
       283.33105       0.92876022      0.091510789
       287.91364       0.92583483      0.095046642
       292.57025       0.92304178      0.098719584
       297.30224       0.92036844       0.10253597
       302.11103       0.91781061       0.10650101
       306.99733       0.91536994       0.11061925
       311.96343       0.91305334       0.11489831
       317.00852       0.91088760       0.11934215
       322.13575       0.90889311       0.12393752
       327.34683       0.90707077       0.12865672
       332.64091       0.90545883       0.13355482
       338.02148       0.90419116       0.13864013
       343.48854       0.90378180       0.14361264
       349.04395       0.90305034       0.14760708
       354.68965       0.90201894       0.15171302
       360.42667       0.90084910       0.15593320
       366.25600       0.89962729       0.16027042
       372.17978       0.89838829       0.16472848
       378.20024       0.89716238       0.16931146
       384.31739       0.89596321       0.17398068
       390.53233       0.89476909       0.17876231
       396.84992       0.89359559       0.18367733
       403.26770       0.89246364       0.18872632
       409.79078       0.89138508       0.19391549
       416.41925       0.89037268       0.19924726
       423.15444       0.88943963       0.20472553
       427.517      0.862000      0.142000
       442.786      0.830000      0.142000
       450.836      0.806000      0.146000
       459.185      0.781000      0.155000
       467.849      0.754000      0.168000
       476.846      0.724000      0.188000
       486.196      0.694000      0.221000
       495.920      0.677000      0.264000
       497.912      0.675000      0.275000
       499.919      0.675000      0.287000
       506.041      0.689000      0.303000
       510.206      0.692000      0.304000
       514.440      0.684000      0.309000
       516.583      0.680000      0.313000
       518.745      0.678000      0.319000
       523.122      0.677000      0.325000
       527.574      0.669000      0.328000
       532.103      0.658000      0.334000
       539.043      0.636000      0.348000
       546.167      0.612000      0.365000
       551.022      0.589000      0.382000
       558.468      0.553000      0.423000
       563.545      0.531000      0.464000
       568.716      0.522000      0.511000
       573.981      0.519000      0.507000
       576.651      0.522000      0.586000
       579.346      0.526000      0.614000
       582.066      0.535000      0.642000
       584.811      0.550000      0.669000
       587.583      0.568000      0.693000
       590.381      0.592000      0.716000
       593.206      0.624000      0.723000
       596.058      0.645000      0.720000
       598.937      0.659000      0.723000
       601.845      0.676000      0.710000
       604.781      0.673000      0.704000
       607.745      0.669000      0.704000
       610.739      0.661000      0.707000
       613.762      0.651000      0.716000
       619.900      0.632000      0.752000
       623.015      0.625000      0.786000
       626.162      0.635000      0.820000
       629.340      0.652000      0.847000
       632.551      0.670000      0.871000
       635.795      0.691000      0.892000
       639.072      0.714000      0.911000
       642.383      0.743000      0.930000
       645.729      0.776000      0.918000
       649.110      0.780000      0.929000
       650.814      0.792000      0.929000
       652.526      0.798000      0.929000
       655.979      0.807000      0.935000
       659.468      0.817000      0.944000
       662.995      0.828000      0.955000
       666.559      0.842000      0.969000
       670.162      0.859000      0.982000
       675.640      0.887000      0.996000
       681.209      0.915000       1.00700
       684.972      0.931000       1.01400
       688.778      0.947000       1.02300
       692.626      0.964000       1.03400
       696.517      0.984000       1.04900
       700.452       1.00900       1.06400
       702.436       1.02500       1.07400
       704.432       1.04600       1.08200
       708.457       1.08700       1.07400
       712.529       1.11900       1.08100
       716.647       1.16600       1.07400
       720.814       1.20300       1.04300
       725.029       1.22400       1.02300
       729.294       1.24100       1.00100
       731.445       1.24800       1.00100
       733.609       1.26500       1.00000
       737.976       1.30100      0.976000
       742.395       1.33300      0.941000
       746.867       1.34100      0.883000
       751.394       1.34400      0.862000
       755.976       1.34600      0.810000
       760.614       1.33700      0.774000
       765.309       1.30100      0.714000
       770.062       1.24700      0.705000
       774.875       1.21400      0.724000
       779.748       1.19500      0.727000
       784.684       1.17300      0.736000
       789.682       1.16000      0.760000
       799.871       1.14900      0.773000
       805.065       1.14100      0.788000
       810.327       1.13500      0.798000
       815.658       1.13100      0.819000
       821.060       1.13900      0.835000
       826.533       1.14700      0.841000
       832.081       1.14900      0.843000
       837.703       1.15000      0.852000
       843.401       1.14900      0.847000
       849.178       1.13700      0.851000
       855.034       1.12000      0.864000
       860.972       1.11500      0.883000
       866.993       1.11000      0.903000
       873.099       1.10600      0.919000
       879.291       1.09400      0.929000
       885.571       1.06500      0.947000
       891.942       1.02300      0.994000
       898.406      0.990000       1.08700
       901.673      0.984000       1.13300
       904.964      0.980000       1.21800
       911.618       1.05400       1.35000
       914.982       1.11100       1.41800
       918.370       1.19100       1.47100
       921.784       1.28300       1.49900
       925.224       1.37400       1.50700
       928.689       1.46300       1.50300
       932.180       1.54900       1.47900
       935.698       1.63200       1.44600
       939.242       1.70200       1.38000
       942.814       1.74400       1.31200
       946.412       1.76800       1.24800
       950.038       1.77900       1.19300
       953.692       1.78600       1.14700
       957.375       1.78900       1.10300
       961.085       1.78800       1.06500
       968.594       1.77900      0.997000
       983.968       1.74500      0.894000
       991.840       1.72300      0.858000
       999.839       1.69400      0.824000
       1024.63       1.60300      0.770000
       1033.17       1.56500      0.765000
       1041.85       1.52000      0.767000
       1050.68       1.47300      0.787000
       1064.21       1.39700      0.839000
       1068.79       1.37000      0.890000
       1078.09       1.37100       1.00000
       1087.54       1.40900       1.08100
       1097.17       1.46800       1.16100
       1106.96       1.55500       1.21000
       1111.93       1.60100       1.22000
       1116.94       1.64600       1.23000
       1127.09       1.73500       1.22800
       1137.43       1.81400       1.20200
       1147.96       1.87700       1.16600
       1180.76       1.99900       1.04100
       1215.49       2.04500      0.921000
       1239.80       2.06100      0.867000
       1265.10       2.07400      0.819000
       1278.14       2.07900      0.798000
       1305.05       2.09100      0.761000
       1333.12       2.10300      0.728000
       1377.56       2.13000      0.679000
       1408.86       2.14700      0.642000
       1458.59       2.16000      0.587000
       1511.95       2.17100      0.545000
       1530.62       2.16800      0.532000
       1549.75       2.15400      0.530000
       1559.50       2.14500      0.539000
       1569.37       2.13700      0.558000
       1579.36       2.12700      0.589000
       1583.40       2.12600      0.611000
       1589.49       2.13200      0.651000
       1599.74       2.18000      0.731000
       1610.13       2.27000      0.813000
       1614.32       2.32700      0.851000
       1618.54       2.38900      0.885000
       1622.77       2.49800      0.936000
       1624.90       2.57400      0.949000
       1627.03       2.66500      0.944000
       1629.17       2.75300      0.912000
       1631.32       2.83900      0.866000
       1633.47       2.92200      0.800000
       1635.62       2.99400      0.711000
       1637.78       3.04800      0.600000
       1639.95       3.06100      0.474000
       1642.12       3.03500      0.360000
       1644.30       2.99900      0.272000
       1646.48       2.94400      0.204000
       1648.67       2.89200      0.149000
       1653.07       2.79300     0.0760000
       1657.49       2.70100     0.0390000
       1664.16       2.60300     0.0180000
       1675.41       2.49400    0.00200000
       1686.80       2.41900       0.00000
       1698.36       2.36300       0.00000
       1703.02       2.34600   0.000136000
       1710.07       2.31900       0.00000
       1721.94       2.28100   7.60000e-05
       1725.54       2.26900   6.87000e-05
       1733.99       2.24800       0.00000
       1736.41       2.24100   5.53000e-05
       1746.20       2.22000       0.00000
       1756.09       2.19800   4.19000e-05
       1758.58       2.19600       0.00000
       1771.14       2.17600   3.70000e-05
       1796.81       2.14100       0.00000
       1799.42       2.13800   2.86000e-05
       1823.24       2.11000       0.00000
       1850.45       2.08400   2.00000e-05
       1878.48       2.06000       0.00000
       1907.38       2.03900   1.39000e-05
       1937.19       2.02000       0.00000
       1999.68       1.98600   1.11000e-05
       2066.33       1.95800   1.00000e-05
       2137.59       1.93300   8.50000e-06
       2213.93       1.91100   7.00000e-06
       2254.18       1.90100   6.00000e-06
       2295.93       1.89200   5.00000e-06
       2384.23       1.87400   3.70000e-06
       2435.76       1.86500   3.20000e-06
       2479.60       1.85800   3.10000e-06
       2610.11       1.84000       0.00000
       2755.11       1.82400       0.00000
       2917.18       1.81000       0.00000
       3099.50       1.79800       0.00000
       3306.13       1.78500       0.00000
       3511.19       1.77680       0.00000
       3555.49       1.77550   8.50000e-07
       3609.32       1.77320   5.75000e-07
       3611.42       1.77318   5.65000e-07
       3649.69       1.77186   4.90000e-07
       3820.65       1.76680   2.75000e-07
       3867.12       1.76550   2.45000e-07
       3933.38       1.76380   2.20000e-07
       4046.34       1.76104   1.95000e-07
       4309.35       1.75570   1.70000e-07
       4357.82       1.75471   1.65000e-07
       4578.29       1.75120   1.45000e-07
       4779.49       1.74830   1.15000e-07
       4860.05       1.74711   1.00000e-07
       4879.18       1.74690   9.75000e-08
       4999.19       1.74540   8.25000e-08
       5023.50       1.74530   8.00000e-08
       5085.32       1.74446   7.00000e-08
       5144.40       1.74390   6.55000e-08
       5461.67       1.74077       0.00000
       5892.59       1.73737       0.00000
       6328.74       1.73460       0.00000
       6437.18       1.73400       0.00000
       6563.26       1.73335       0.00000
       6676.36       1.73277       0.00000
       6906.96       1.73191       0.00000
       7064.39       1.73101       0.00000
       7676.78       1.72872       0.00000
       9998.39       1.72290       0.00000
       10137.4       1.72259       0.00000
       10596.6       1.72170       0.00000
       11281.2       1.72059       0.00000
       13189.4       1.71770   7.10000e-08
       13672.3       1.71715       0.00000
       14998.8       1.71530       0.00000
       15294.8       1.71496       0.00000
       15499.4       1.71470       0.00000
       16932.5       1.71281       0.00000
       17091.3       1.71258       0.00000
       18131.0       1.71108       0.00000
       19701.3       1.70885       0.00000
       20000.0       1.70850       0.00000
       22492.7       1.70470       0.00000
       23252.1       1.70350       0.00000
       25001.0       1.70070       0.00000
       26999.1       1.69730   1.10000e-07
       27999.1       1.69540       0.00000
       29997.6       1.69150       0.00000
       33034.9       1.68526       0.00000
       33328.0       1.68460       0.00000
       34477.2       1.68200       0.00000
       35002.8       1.68060       0.00000
       35072.1       1.68055       0.00000
       35708.5       1.67910       0.00000
       37031.1       1.67580       0.00000
       37995.7       1.67340   2.00000e-08
       38455.3       1.67220       0.00000
       39993.5       1.66790   3.70000e-08
       41659.9       1.66340   7.40000e-08
       42575.5       1.66039   1.00000e-07
       43471.2       1.65810   1.50000e-07
       45001.8       1.65330   2.50000e-07
       45447.2       1.65200   2.90000e-07
       47611.4       1.64500   5.80000e-07
       49991.9       1.63730   1.20000e-06
       51273.8       1.63280   1.63000e-06
       52092.4       1.62990   2.00000e-06
       52623.1       1.62780   2.30000e-06
       53187.5       1.62560   2.70000e-06
       53764.1       1.62330   3.10000e-06
       54353.4       1.62100   3.50000e-06
       54931.3       1.61860   4.00000e-06
       55571.5       1.61610   4.60000e-06
       56175.8       1.61350   5.30000e-06
       56819.4       1.61080   6.10000e-06
       57478.0       1.60800   7.10000e-06
       58152.0       1.60510   8.10000e-06
       58814.0       1.60210   9.00000e-06
       59519.9       1.59890   1.10000e-05
       60243.0       1.59570   1.20000e-05
       60983.8       1.59220   1.40000e-05
       61743.0       1.58870   1.60000e-05
       62489.9       1.58490   1.83000e-05
       63287.4       1.58110   2.20000e-05
       64105.5       1.57700   2.50000e-05
       64945.0       1.57270   2.90000e-05
       65806.8       1.56830   3.30000e-05
       66655.9       1.56360   4.60000e-05
       67564.0       1.55100   5.38000e-05
       68497.2       1.55360   5.98000e-05
       69456.6       1.54800   7.00000e-05
       70443.2       1.54300   7.89000e-05
       71417.0       1.53700   8.59000e-05
       72460.5       1.53000   9.30000e-05
       73535.0       1.52400   0.000103000
       74641.8       1.51700   0.000115000
       75736.1       1.50900   0.000131000
       76910.7       1.50200   0.000154000
       78122.2       1.49300   0.000184000
       79372.6       1.48500   0.000211000
       80663.6       1.47500   0.000247000
       81943.2       1.46500   0.000273000
       83319.9       1.45500   0.000309000
       84743.7       1.44300   0.000326000
       86217.0       1.43100   0.000352000
       87742.4       1.41800   0.000414000
       89258.5       1.40400   0.000576000
       90894.4       1.38900   0.000627000
       92591.5       1.37300   0.000847000
       94353.1       1.35500    0.00107000
       95222.7       1.34600    0.00133000
       96183.1       1.33600    0.00158000
       97086.9       1.32600    0.00192000
       98007.9       1.31500    0.00244000
       99025.6       1.30400    0.00302000
       99983.9       1.29200    0.00390000
       101043.       1.28000    0.00470000
       102041.       1.26700    0.00513000
       103145.       1.25300    0.00429000
       104185.       1.23900    0.00355000
       105246.       1.22400    0.00340000
       106421.       1.20900    0.00370000
       107528.       1.19100    0.00458000
       108659.       1.17400    0.00591000
       109911.       1.15500    0.00780000
       111093.       1.13500     0.0102000
       112403.       1.11400     0.0137000
       113639.       1.09100     0.0162000
       114903.       1.06700     0.0196000
       116304.       1.04100     0.0223000
       116962.       1.02700     0.0229000
       117628.       1.01300     0.0227000
       119097.      0.982000     0.0205000
       120486.      0.949000     0.0171000
       121908.      0.913000     0.0147000
       122752.      0.893000     0.0143000
       123486.      0.873000     0.0146000
       124980.      0.829000     0.0167000
       126639.      0.780000     0.0236000
       128211.      0.724000     0.0295000
       129822.      0.660000     0.0346000
       133312.      0.503000     0.0475000
       135054.      0.393000     0.0913000
       136994.      0.267000      0.172000
       138835.      0.156000      0.317000
       140886.      0.139000      0.478000
       142834.      0.132000      0.595000
       144836.      0.134000      0.692000
       147070.      0.136000      0.787000
       149194.      0.143000      0.877000
       151565.      0.154000      0.955000
       153821.      0.155000       1.03000
       156146.      0.151000       1.09000
       158745.      0.135000       1.17000
       161222.      0.116000       1.26000
       163995.      0.108000       1.35000
       166640.     0.0980000       1.45000
       169372.     0.0860000       1.56000
       172434.     0.0870000       1.67000
       175361.     0.0860000       1.78000
       178646.     0.0880000       1.90000
       181789.     0.0890000       2.03000
       185045.     0.0910000       2.16000
       188706.     0.0930000       2.31000
       192217.     0.0970000       2.47000
       196171.      0.102000       2.64000
       199968.      0.109000       2.84000
       203914.      0.119000       3.06000
       208370.      0.131000       3.31000
       212659.      0.148000       3.60000
       217509.      0.170000       3.95000
       222186.      0.207000       4.39000
       227070.      0.261000       4.95000
       232608.      0.362000       5.71000
       237965.      0.543000       6.86000
       244055.       1.01000       8.97000
       249960.       5.05000       15.2000
       256157.       13.5000       4.06000
       263227.       9.28000       1.02000
       270109.       7.44000      0.560000
       277982.       6.46000      0.379000
       285668.       5.83000      0.266000
       291718.       5.35000      0.208000
       303130.       5.03000      0.168000
       312292.       4.74000      0.129000
       322865.       4.51000      0.126000
       333280.       4.36000      0.113000
       370090.       3.97000     0.0290000
       385031.       3.87000     0.0276000
       399936.       3.78000     0.0265000
       416040.       3.71000     0.0254000
       435018.       3.64000     0.0233000
       454139.       3.58000     0.0215000
       476846.       3.53000     0.0214000
       499919.       3.48000     0.0218000
       525339.       3.44000     0.0220000
       555964.       3.40000     0.0236000
       587583.       3.37000     0.0255000
       626162.       3.34000     0.0246000
       666559.       3.31000     0.0280000
       712529.       3.28000     0.0299000
       770062.       3.26000     0.0313000
       832081.       3.24000     0.0338000
       911618.       3.22000     0.0387000
       953692.       3.21000     0.0455000
       999839.       3.20000     0.0356000
   1.05068e+06       3.20000     0.0236000
   1.10696e+06       3.19000     0.0146000
   1.18076e+06       3.18000    0.00620000
   1.24980e+06       3.17800    0.00480000
   1.33312e+06       3.17200    0.00390000
   1.42834e+06       3.16700    0.00342000
   1.53821e+06       3.16200    0.00315000
   1.66640e+06       3.15700    0.00280000
   1.81789e+06       3.15300    0.00253000
   1.99968e+06       3.14900    0.00228000
   2.22186e+06       3.14600    0.00200000
   2.49960e+06       3.14300    0.00179000
   2.85668e+06       3.14000    0.00151000
   3.33280e+06       3.13800    0.00121000
   3.99935e+06       3.13600   0.000980000
   4.99919e+06       3.13400   0.000730000
   6.26162e+06       3.13300   0.000580000
