; Optical constants for sputtered Mo2C, 500 A thickness, 
; measured August 2002, from 175 -- 280 A
; 
; D. Windt
;
;  Lambda (A)            n            k
;-----------------------------------------
 175.0 0.8531 0.0392
 176.0 0.8505 0.0405
 177.0 0.8482 0.0417
 178.0 0.8459 0.0431
 179.0 0.8439 0.0443
 180.0 0.8420 0.0457
 181.0 0.8403 0.0470
 182.0 0.8383 0.0485
 183.0 0.8365 0.0500
 184.0 0.8349 0.0516
 185.0 0.8331 0.0532
 186.0 0.8312 0.0550
 187.0 0.8294 0.0569
 188.0 0.8273 0.0590
 189.0 0.8254 0.0610
 190.0 0.8230 0.0634
 191.0 0.8209 0.0657
 192.0 0.8187 0.0682
 193.0 0.8163 0.0708
 194.0 0.8138 0.0735
 195.0 0.8118 0.0762
 196.0 0.8087 0.0793
 197.0 0.8063 0.0823
 198.0 0.8036 0.0854
 199.0 0.8011 0.0886
 200.0 0.7983 0.0920
 201.0 0.7955 0.0954
 202.0 0.7928 0.0989
 203.0 0.7902 0.1025
 204.0 0.7876 0.1061
 205.0 0.7850 0.1097
 206.0 0.7823 0.1136
 207.0 0.7803 0.1171
 208.0 0.7775 0.1211
 209.0 0.7754 0.1249
 210.0 0.7729 0.1289
 211.0 0.7709 0.1328
 212.0 0.7689 0.1367
 213.0 0.7669 0.1407
 214.0 0.7653 0.1446
 215.0 0.7637 0.1486
 216.0 0.7623 0.1525
 217.0 0.7610 0.1565
 218.0 0.7601 0.1603
 219.0 0.7593 0.1642
 220.0 0.7583 0.1681
 221.0 0.7579 0.1719
 222.0 0.7574 0.1758
 223.0 0.7577 0.1794
 224.0 0.7574 0.1833
 225.0 0.7582 0.1867
 226.0 0.7582 0.1905
 227.0 0.7589 0.1941
 228.0 0.7595 0.1977
 229.0 0.7601 0.2013
 230.0 0.7611 0.2048
 231.0 0.7628 0.2080
 232.0 0.7640 0.2115
 233.0 0.7652 0.2150
 234.0 0.7664 0.2184
 235.0 0.7690 0.2213
 236.0 0.7703 0.2247
 237.0 0.7723 0.2279
 238.0 0.7743 0.2311
 239.0 0.7760 0.2343
 240.0 0.7780 0.2374
 241.0 0.7807 0.2403
 242.0 0.7821 0.2436
 243.0 0.7843 0.2466
 244.0 0.7863 0.2497
 245.0 0.7882 0.2527
 246.0 0.7899 0.2558
 247.0 0.7920 0.2587
 248.0 0.7934 0.2619
 249.0 0.7952 0.2648
 250.0 0.7969 0.2677
 251.0 0.7977 0.2710
 252.0 0.7996 0.2738
 253.0 0.8005 0.2769
 254.0 0.8017 0.2798
 255.0 0.8023 0.2828
 256.0 0.8028 0.2859
 257.0 0.8048 0.2882
 258.0 0.8033 0.2919
 259.0 0.8006 0.2961
 260.0 0.8020 0.2984
 261.0 0.8035 0.3005
 262.0 0.8029 0.3035
 263.0 0.7994 0.3075
 264.0 0.8002 0.3097
 265.0 0.8002 0.3121
 266.0 0.7978 0.3153
 267.0 0.7942 0.3189
 268.0 0.7928 0.3215
 269.0 0.7943 0.3227
 270.0 0.7907 0.3259
 271.0 0.7875 0.3288
 272.0 0.7868 0.3304
 273.0 0.7871 0.3315
 274.0 0.7831 0.3343
 275.0 0.7815 0.3359
 276.0 0.7809 0.3369
 277.0 0.7818 0.3370
 278.0 0.7818 0.3374
 279.0 0.7800 0.3383
 280.0 0.7807 0.3380
