;  Optical constants for Re
; 
;   taken from:
;
;   D. L. Windt, Webster C. Cash, Jr., M. Scott, P. Arendt, B. Newnam,
;   R. F. Fisher, and A. B. Swartzlander, 'Optical Constants for thin films
;   of Ti, Zr, Nb, Mo, Ru, Rh, Pd, Ag, Hf, Ta, W, Re, Ir, Os, Pt, and Au
;   from 24 to 1216 A', App. Opt., 27, 246, 1988.
;   
;    Lambda (A)            n            k
;-----------------------------------------
   23.620      .99720	.00262
   31.600      .99772	.00358
   44.700      .99431	.00715
   67.600      .9883	.00912
   114.00      .9664	.0247
   135.50      .9473	.0246
   243.03      .895	.199
   256.32      .881	.181
   303.78      .918	.188
   327.00      .861	.147
   356.80      .803	.175
   379.31      .766	.204
   405.85      .730	.234
   447.81      .687	.336
   460.73      .663	.405
   489.50      .702	.521
   539.09      .786	.723
   584.33      .779	.783
   616.29      .874	.866
   671.39      1.023	.969
   718.48      1.067	.937
   735.90      1.071	.954
   743.72      1.051	.920
   834.46      1.102	.853
   878.00      1.125	.838
   919.78      1.148	.888
   932.05      1.103	.881
   988.78      1.221	.910
   1025.8      1.274	.918
   1048.2      1.196	.946
   1066.7      1.259	.958
   1085.7      1.20	.905
   1135.0      1.33	.933
   1200.7      1.23	.901
   1215.7      1.33	.922
