;  Optical constants for Rh
; 
;   taken from:
;
;   D. L. Windt, Webster C. Cash, Jr., M. Scott, P. Arendt, B. Newnam,
;   R. F. Fisher, and A. B. Swartzlander, 'Optical Constants for thin films
;   of Ti, Zr, Nb, Mo, Ru, Rh, Pd, Ag, Hf, Ta, W, Re, Ir, Os, Pt, and Au
;   from 24 to 1216 A', App. Opt., 27, 246, 1988.
;   
;    Lambda (A)            n            k
;-----------------------------------------
   23.620      0.99612      3.86000E-03
   31.600      0.99615      3.85200E-03
   44.700      0.99339      2.19400E-03
   67.600      0.98140      3.91000E-03
   114.00      0.93246      4.82400E-03
   135.50      0.88770      1.61710E-02
   171.40      0.80042      0.14493    
   243.03      0.91054      0.27418    
   256.32      0.92116      0.27780    
   303.78      0.82087      0.20242    
   327.00      0.77783      0.25179    
   356.80      0.72948      0.29738    
   379.31      0.71660      0.40719    
   405.85      0.74970      0.52536    
   447.81      0.75341      0.58400    
   460.73      0.75726      0.63776    
   489.50      0.81765      0.75314    
   539.09      0.89627      0.83866    
   584.33       1.0269      0.97734    
   616.29       1.1093      0.97249    
   671.39       1.0308      0.89475    
   718.48       1.2249      0.86588    
   735.90       1.2242      0.81356    
   743.72       1.3010      0.83309    
   834.46       1.4061      0.82093    
   878.00       1.2497      0.83621    
   919.78       1.3255      0.79866    
   932.05       1.1812      0.77898     
   988.78       1.2933      0.76255    
   1025.8       1.3879      0.71877    
   1048.2       1.3153      0.71477    
   1066.7       1.2743      0.72455    
   1085.7       1.2209      0.68358    
   1135.0       1.3481      0.66410    
   1200.7       1.2715      0.64368    
   1215.7       1.1358      0.58218    
