;  Optical constants for Rh
; 
;   taken from:
;
;   J. H. Weaver, C. Krafka, D. W. Lynch, and E. E. Koch, 'Physik Daten,
;   Physics Data: Optical Properties of Metals', Vol. 18-1 and 18-2,
;   Fach-information zentrum, Karlsruhe, 1981.
;   
;    Lambda (A)            n            k
;-----------------------------------------
   317.90    .75	.25
   326.26    .74	.24
   335.08    .74	.28
   344.39    .73	.27
   354.23    .69	.28
   364.65    .65	.30
   375.70    .60	.37
   387.44    .61	.44
   399.94    .64	.49
   413.27    .66	.51
   420.27    .66	.52
   427.52    .65	.54
   435.02    .65	.56
   442.79    .65	.59
   446.77    .65	.60
   450.84    .65	.61
   454.97    .65	.62
   459.19    .65	.64
   463.48    .65	.65
   467.85    .65	.66
   472.30    .65	.68
   476.85    .66	.70
   481.48    .66	.72
   486.20    .67	.74
   491.01    .68	.75
   495.92    .69	.77
   500.93    .69	.79
   506.04    .70	.81
   511.26    .72	.83
   516.58    .73	.84
   522.02    .74	.86
   527.57    .75	.87
   533.25    .77	.89
   539.04    .79	.90
   544.97    .80	.91
   551.02    .81	.92
   557.21    .82	.93
   563.55    .83	.95
   570.02    .84	.97
   576.65    .86	1.0
   583.44    .88	1.03
   590.38    .91	1.05
   597.49    .95	1.08
   604.78    1.00	1.09
   612.25    1.045	1.09
   619.90    1.10	1.09	
   627.75    1.14	1.07
   635.79    1.18	1.05
   644.05    1.21	1.02
   652.53    1.24	.98
   661.23    1.25	.95
   670.16    1.25       .92
   679.34    1.24	.90
   688.78    1.23	.88
   698.48    1.23	.88
   708.46    1.22	.87
   718.72    1.22	.88
   729.29    1.22	.88
   740.18    1.22	.88
   751.39    1.23	.88
   762.95    1.23	.89
   774.88    1.24	.89
   784.68    1.24	.89
   794.74    1.25	.90
   805.06    1.26	.90
   813.10    1.27	.90
   826.53    1.28	.90
   837.70    1.29	.89
   849.18    1.30	.89
   860.97    1.31	.88
   873.10    1.32	.87
   885.57    1.32	.86
   898.41    1.32	.85
   911.62    1.32	.85
   925.22    1.32	.84
   939.24    1.32	.84
   953.69    1.32	.83
   968.59    1.32	.83
   983.97    1.32	.82
   999.84    1.32	.82
   1016.2    1.32	.82
   1033.2    1.32	.82
   1050.7    1.32	.81
   1068.8    1.32	.80
   1087.5    1.32	.79
   1107.0    1.31	.77
   1127.1    1.29	.76
   1148.0    1.28	.75
   1169.6    1.26	.73
   1192.1    1.24	.72
   1215.5    1.21	.70
   1239.8    1.17	.69
   1265.1    1.12	.69
   1291.5    1.07	.69
   1318.9    1.01	.71   
