;  Optical constants for Ru, single crystal w/ E perp. c
; 
;   taken from:
;
;   J. H. Weaver, C. Krafka, D. W. Lynch, and E. E. Koch, 'Physik Daten,
;   Physics Data: Optical Properties of Metals', Vol. 18-1 and 18-2,
;   Fach-information zentrum, Karlsruhe, 1981.
;   
;    Lambda (A)            n            k
;-----------------------------------------
   309.95    .79	.22
   317.90    .77	.22
   326.26    .75	.22
   335.08    .73	.23
   344.39    .72	.25
   354.23    .70	.26
   359.36    .68	.27
   364.65    .67	.27
   370.09    .66	.30
   375.70    .65	.31
   381.48    .64	.32
   387.44    .63	.34
   393.59    .62	.37
   399.94    .61	.40
   406.49    .61	.43
   413.27    .62	.45
   420.27    .62	.46
   427.52    .61	.48
   435.02    .61	.50
   442.79    .60	.53
   450.84    .60	.56
   459.19    .60	.59
   467.85    .60	.63
   476.85    .61	.66
   486.20    .62	.69
   495.92    .64	.73
   506.04    .65	.76
   516.58    .67	.79
   527.57    .68	.83
   539.04    .71	.87
   551.02    .74	.90
   563.55    .77	.94
   570.02    .79	.95
   576.65    .80	.97
   583.44    .82	.99
   590.38    .85	1.01
   597.49    .88	1.02
   604.78    .91	1.03
   612.25    .94	1.04
   619.90    .97	1.04
   627.75    .99	1.04
   635.79    1.02	1.04
   644.05    1.04	1.05
   652.53    1.07	1.05
   661.23    1.09	1.05
   670.16    1.12	1.05
   679.34    1.15	1.05
   688.78    1.19	1.04
   698.48    1.22	1.02
   708.46    1.25	1.00
   718.72    1.27	.97
   729.29    1.28	.94
   740.18    1.28	.91
   751.39    1.28	.89
   762.95    1.28	.87
   774.88    1.27	.85
   784.68    1.26	.85
   794.74    1.25	.85
   805.06    1.25	.84
   826.53    1.25	.84
   837.70    1.25	.84
   849.18    1.25	.84
   860.97    1.25	.84
   873.10    1.25	.84
   885.57    1.26	.84
   898.41    1.26	.83
   911.62    1.27	.83
   925.22    1.27	.82
   939.24    1.27	.81
   953.69    1.27	.79
   968.59    1.26	.78
   983.97    1.25	.77
   999.84    1.25	.76
   1016.2    1.24	.75
   1033.2    1.22	.73
   1050.7    1.20	.72
   1068.8    1.17	.71
   1087.5    1.14	.70
   1107.0    1.11	.70
   1127.1    1.08	.70
   1148.0    1.04	.71
   1169.6    .99	.72
   1192.1    .94	.74
   1215.5    .90	.77
   1239.8    .86	.81
   1265.1    .82	.84
   1291.5    .77	.89
   1318.9    .73	.95
