;  Optical constants for cubic Si0.25Ge0.75
; 
;   taken from:
;
;   'Handbook of Optical Constants of Solids II', Ed. by Edward D. Palik,
;   Academic Press, Inc., 1991.
;   
;    Lambda (A)            n            k
;-----------------------------------------
       968.594      0.850000      0.840000
       983.968      0.850000      0.850000
       1016.23      0.850000      0.880000
       1033.17      0.850000      0.900000
       1050.68      0.850000      0.920000
       1087.54      0.850000      0.950000
       1127.09      0.840000      0.990000
       1169.62      0.830000       1.02000
       1215.49      0.810000       1.09000
       1239.80      0.800000       1.13000
       1265.10      0.790000       1.17000
       1318.94      0.790000       1.26000
       1377.56      0.800000       1.36000
       1408.86      0.810000       1.40000
       1441.63      0.820000       1.45000
       1475.95      0.820000       1.50000
       1511.95      0.820000       1.57000
       1549.75      0.830000       1.64000
       1569.37      0.830000       1.68000
       1589.49      0.840000       1.72000
       1610.13      0.850000       1.77000
       1631.32      0.870000       1.81000
       1653.07      0.890000       1.85000
       1675.41      0.910000       1.90000
       1698.36      0.930000       1.95000
       1721.94      0.960000       1.99000
       1746.20      0.990000       2.03000
       1771.14       1.03000       2.08000
       1796.81       1.08000       2.10000
       1823.24       1.11000       2.11000
       1850.45       1.12000       2.12000
       1878.48       1.12000       2.15000
       1907.38       1.12000       2.20000
       1937.19       1.13000       2.26000
       1967.94       1.15000       2.32000
       1999.68       1.17000       2.39000
       2032.46       1.20000       2.48000
       2066.33       1.27000       2.58000
       2101.36       1.36000       2.66000
       2137.59       1.48000       2.70000
       2175.09       1.58000       2.69000
       2213.93       1.64000       2.66000
       2254.18       1.65000       2.66000
       2295.93       1.65000       2.68000
       2339.25       1.64000       2.74000
       2384.23       1.66000       2.83000
       2430.98       1.69000       2.93000
       2530.20       1.80000       3.19000
       2582.92       1.89000       3.34000
       2610.11       1.95000       3.43000
       2637.87       2.02000       3.51000
       2666.24       2.09000       3.61000
       2695.22       2.19000       3.72000
       2706.99       2.23000       3.77000
       2718.86       2.28000       3.82000
       2730.84       2.33000       3.87000
       2742.92       2.39000       3.92000
       2755.11       2.47000       3.97000
       2767.41       2.55000       4.03000
       2779.82       2.64000       4.07000
       2792.34       2.74000       4.12000
       2804.98       2.85000       4.15000
       2817.73       2.97000       4.18000
       2830.59       3.11000       4.18000
       2843.58       3.24000       4.17000
       2856.68       3.38000       4.14000
       2869.91       3.52000       4.09000
       2883.26       3.64000       4.02000
       2896.73       3.75000       3.93000
       2917.18       3.87000       3.79000
       2937.91       3.96000       3.65000
       2958.95       4.02000       3.51000
       2980.29       4.05000       3.38000
       3001.94       4.07000       3.27000
       3023.90       4.09000       3.17000
       3061.23       4.09000       3.02000
       3099.50       4.09000       2.91000
       3138.73       4.09000       2.81000
       3178.97       4.09000       2.72000
       3220.26       4.08000       2.64000
       3262.63       4.08000       2.58000
       3306.13       4.08000       2.53000
       3350.81       4.08000       2.48000
       3396.71       4.09000       2.43000
       3443.89       4.10000       2.39000
       3492.39       4.11000       2.35000
       3542.29       4.13000       2.31000
       3593.62       4.14000       2.27000
       3646.47       4.16000       2.24000
       3700.90       4.19000       2.19000
       3756.97       4.21000       2.14000
       3814.77       4.23000       2.09000
       3874.38       4.24000       2.03000
       3935.87       4.23000       1.98000
       3999.35       4.21000       1.94000
       4064.92       4.19000       1.92000
       4132.67       4.17000       1.91000
       4202.71       4.16000       1.92000
       4275.17       4.17000       1.94000
       4350.18       4.19000       1.97000
       4427.86       4.23000       2.01000
       4508.36       4.30000       2.04000
       4591.85       4.38000       2.07000
       4678.49       4.50000       2.09000
       4768.46       4.64000       2.09000
       4805.43       4.72000       2.08000
       4842.97       4.79000       2.05000
       4881.10       4.86000       2.02000
       4919.84       4.92000       1.97000
       4959.20       4.97000       1.92000
       4999.19       5.03000       1.87000
       5039.84       5.08000       1.83000
       5081.15       5.14000       1.77000
       5123.14       5.20000       1.71000
       5165.83       5.28000       1.64000
       5209.24       5.33000       1.53000
       5253.39       5.37000       1.41000
       5298.29       5.37000       1.30000
       5343.97       5.37000       1.18000
       5390.44       5.34000       1.07000
       5437.72       5.30000      0.980000
       5485.84       5.25000      0.910000
       5534.82       5.20000      0.840000
       5635.45       5.11000      0.740000
       5766.51       5.00000      0.650000
       5903.81       4.91000      0.580000
       6047.81       4.82000      0.530000
       6199.00       4.77000      0.500000
       6357.95       4.72000      0.460000
       6525.26       4.67000      0.410000
       6701.62       4.62000       0.00000
       6887.78       4.58000       0.00000
       7292.94       4.49000       0.00000
       7748.75       4.42000       0.00000
       8265.33       4.36000       0.00000
       8855.71       4.30000       0.00000
       9536.92       4.23000       0.00000
       10331.7       4.17000       0.00000
       11270.9       4.12000       0.00000
       12398.0       4.06000       0.00000
       13775.6       4.02000       0.00000
       15497.5       3.97000       0.00000
       17711.4       3.94000       0.00000
       20663.3       3.90000       0.00000
       24796.0       3.88000       0.00000
       30995.0       3.86000       0.00000
       41326.7       3.84000       0.00000
       61990.0       3.83000       0.00000
       123980.       3.82000       0.00000
