;  Optical constants for cubic Si0.5Ge0.5 (alternate)
; 
;   taken from:
;
;   'Handbook of Optical Constants of Solids II', Ed. by Edward D. Palik,
;   Academic Press, Inc., 1991.
;   
;    Lambda (A)            n            k
;-----------------------------------------
       2213.93       1.32000       2.87000
       2254.18       1.37000       2.88000
       2295.93       1.39000       2.88000
       2339.25       1.39000       2.91000
       2348.11       1.39000       2.91000
       2357.03       1.39000       2.93000
       2366.03       1.39000       2.93000
       2375.10       1.40000       2.95000
       2384.23       1.40000       2.96000
       2393.44       1.40000       2.98000
       2402.71       1.40000       2.99000
       2412.06       1.39000       3.01000
       2421.48       1.40000       3.03000
       2430.98       1.40000       3.05000
       2440.55       1.41000       3.07000
       2450.20       1.41000       3.09000
       2459.92       1.41000       3.11000
       2469.72       1.42000       3.13000
       2479.60       1.43000       3.16000
       2489.56       1.43000       3.19000
       2499.60       1.44000       3.21000
       2509.72       1.45000       3.24000
       2519.92       1.46000       3.26000
       2530.20       1.47000       3.30000
       2540.57       1.48000       3.32000
       2551.03       1.49000       3.36000
       2561.57       1.51000       3.39000
       2572.20       1.52000       3.42000
       2582.92       1.54000       3.46000
       2593.72       1.55000       3.49000
       2604.62       1.57000       3.52000
       2615.61       1.59000       3.56000
       2626.70       1.60000       3.60000
       2637.87       1.63000       3.64000
       2649.15       1.66000       3.68000
       2660.52       1.68000       3.72000
       2671.98       1.71000       3.77000
       2683.55       1.74000       3.82000
       2695.22       1.77000       3.87000
       2706.99       1.81000       3.91000
       2718.86       1.85000       3.97000
       2730.84       1.89000       4.02000
       2742.92       1.95000       4.07000
       2755.11       2.00000       4.13000
       2767.41       2.06000       4.18000
       2779.82       2.13000       4.23000
       2792.34       2.21000       4.29000
       2804.98       2.30000       4.34000
       2817.73       2.40000       4.39000
       2830.59       2.51000       4.43000
       2843.58       2.63000       4.46000
       2856.68       2.76000       4.47000
       2869.91       2.90000       4.46000
       2883.26       3.02000       4.44000
       2896.73       3.15000       4.40000
       2910.33       3.26000       4.34000
       2924.06       3.36000       4.28000
       2937.91       3.45000       4.21000
       2951.90       3.53000       4.14000
       2966.03       3.59000       4.06000
       2980.29       3.65000       3.99000
       2994.69       3.70000       3.92000
       3009.22       3.74000       3.85000
       3023.90       3.77000       3.79000
       3038.73       3.80000       3.73000
       3053.69       3.82000       3.67000
       3068.81       3.84000       3.61000
       3084.08       3.86000       3.56000
       3099.50       3.87000       3.52000
       3115.08       3.89000       3.47000
       3130.81       3.90000       3.42000
       3146.70       3.92000       3.39000
       3162.76       3.93000       3.35000
       3178.97       3.94000       3.31000
       3195.36       3.95000       3.28000
       3211.92       3.97000       3.25000
       3228.65       3.98000       3.22000
       3245.55       3.99000       3.19000
       3262.63       4.00000       3.16000
       3279.89       4.01000       3.14000
       3297.34       4.02000       3.11000
       3314.97       4.04000       3.09000
       3332.80       4.04000       3.06000
       3350.81       4.06000       3.04000
       3369.02       4.07000       3.02000
       3387.43       4.08000       3.00000
       3406.04       4.10000       2.98000
       3424.86       4.11000       2.96000
       3443.89       4.12000       2.94000
       3463.13       4.14000       2.93000
       3482.58       4.15000       2.91000
       3502.26       4.16000       2.89000
       3522.16       4.19000       2.88000
       3542.29       4.20000       2.87000
       3562.64       4.22000       2.85000
       3583.24       4.24000       2.83000
       3604.07       4.26000       2.82000
       3625.15       4.28000       2.81000
       3646.47       4.31000       2.79000
       3668.05       4.33000       2.77000
       3689.88       4.35000       2.76000
       3711.98       4.38000       2.74000
       3734.34       4.41000       2.72000
       3756.97       4.43000       2.69000
       3779.88       4.46000       2.67000
       3803.07       4.48000       2.65000
       3826.54       4.51000       2.62000
       3850.31       4.53000       2.60000
       3874.38       4.55000       2.57000
       3898.74       4.56000       2.55000
       3923.42       4.58000       2.52000
       3948.41       4.60000       2.50000
       3973.72       4.61000       2.48000
       3999.35       4.63000       2.46000
       4025.32       4.64000       2.45000
       4051.63       4.66000       2.44000
       4078.29       4.68000       2.43000
       4105.30       4.71000       2.42000
       4132.67       4.74000       2.42000
       4160.40       4.78000       2.41000
       4188.51       4.82000       2.41000
       4217.01       4.87000       2.40000
       4245.89       4.92000       2.39000
       4275.17       4.98000       2.38000
       4304.86       5.05000       2.35000
       4334.97       5.12000       2.32000
       4365.49       5.19000       2.28000
       4396.45       5.27000       2.23000
       4427.86       5.34000       2.16000
       4459.71       5.42000       2.09000
       4492.03       5.48000       2.00000
       4524.82       5.55000       1.90000
       4558.09       5.60000       1.79000
       4591.85       5.64000       1.66000
       4626.12       5.65000       1.53000
       4660.90       5.65000       1.40000
       4696.21       5.63000       1.28000
       4732.06       5.59000       1.17000
       4768.46       5.55000       1.07000
       4805.43       5.50000      0.990000
       4842.97       5.45000      0.910000
       4881.10       5.40000      0.830000
       4919.84       5.34000      0.770000
       4959.20       5.29000      0.720000
       4999.19       5.24000      0.660000
       5039.84       5.19000      0.610000
       5081.15       5.15000      0.580000
       5123.14       5.10000      0.520000
       5165.83       5.06000      0.490000
       5209.24       5.01000      0.460000
       5253.39       4.97000      0.440000
       5298.29       4.93000      0.410000
       5343.97       4.89000      0.400000
       5390.44       4.85000      0.350000
       5437.72       4.81000      0.360000
       5485.84       4.77000      0.340000
       5534.82       4.74000      0.300000
       5584.68       4.71000       0.00000
       5635.45       4.67000       0.00000
       5687.16       4.64000       0.00000
       5739.81       4.61000       0.00000
       5793.46       4.58000       0.00000
       5848.11       4.55000       0.00000
       5903.81       4.52000       0.00000
       5960.58       4.50000       0.00000
       6018.45       4.47000       0.00000
       6077.45       4.45000       0.00000
       6137.62       4.42000       0.00000
       6199.00       4.40000       0.00000
       6261.62       4.38000       0.00000
       6325.51       4.36000       0.00000
       6390.72       4.34000       0.00000
       6457.29       4.32000       0.00000
       6525.26       4.30000       0.00000
       6594.68       4.28000       0.00000
       6665.59       4.26000       0.00000
       6738.04       4.25000       0.00000
       6812.09       4.23000       0.00000
       6887.78       4.21000       0.00000
       6965.17       4.20000       0.00000
       7044.32       4.18000       0.00000
       7125.29       4.16000       0.00000
       7208.14       4.14000       0.00000
       7292.94       4.13000       0.00000
       7379.76       4.11000       0.00000
       7468.67       4.09000       0.00000
