;  Optical constants for cubic Si0.5Ge0.5
; 
;   taken from:
;
;   'Handbook of Optical Constants of Solids II', Ed. by Edward D. Palik,
;   Academic Press, Inc., 1991.
;   
;    Lambda (A)            n            k
;-----------------------------------------
       968.594      0.750000      0.810000
       999.839      0.750000      0.850000
       1033.17      0.750000      0.880000
       1068.79      0.750000      0.920000
       1106.96      0.740000      0.960000
       1147.96      0.730000       1.01000
       1192.12      0.720000       1.07000
       1239.80      0.700000       1.15000
       1265.10      0.700000       1.19000
       1291.46      0.700000       1.23000
       1347.61      0.710000       1.32000
       1408.86      0.720000       1.42000
       1475.95      0.740000       1.53000
       1549.75      0.760000       1.63000
       1589.49      0.750000       1.70000
       1631.32      0.750000       1.78000
       1675.41      0.760000       1.88000
       1721.94      0.770000       2.00000
       1771.14      0.820000       2.13000
       1796.81      0.860000       2.19000
       1823.24      0.900000       2.24000
       1850.45      0.950000       2.29000
       1878.48      0.990000       2.33000
       1907.38       1.02000       2.38000
       1937.19       1.05000       2.42000
       1967.94       1.08000       2.48000
       1999.68       1.11000       2.55000
       2032.46       1.16000       2.62000
       2066.33       1.22000       2.70000
       2101.36       1.29000       2.77000
       2137.59       1.37000       2.83000
       2175.09       1.47000       2.88000
       2213.93       1.56000       2.91000
       2254.18       1.64000       2.91000
       2295.93       1.70000       2.91000
       2339.25       1.71000       2.93000
       2384.23       1.72000       3.00000
       2430.98       1.75000       3.11000
       2479.60       1.81000       3.24000
       2530.20       1.90000       3.36000
       2582.92       2.00000       3.51000
       2610.11       2.07000       3.59000
       2637.87       2.14000       3.67000
       2666.24       2.22000       3.78000
       2695.22       2.33000       3.89000
       2706.99       2.38000       3.93000
       2718.86       2.44000       3.98000
       2730.84       2.50000       4.03000
       2742.92       2.57000       4.07000
       2755.11       2.62000       4.12000
       2767.41       2.72000       4.16000
       2779.82       2.81000       4.20000
       2792.34       2.91000       4.24000
       2804.98       3.02000       4.27000
       2817.73       3.14000       4.29000
       2830.59       3.27000       4.30000
       2843.58       3.41000       4.31000
       2856.68       3.56000       4.27000
       2869.91       3.70000       4.22000
       2883.26       3.83000       4.15000
       2896.73       3.94000       4.05000
       2910.33       4.03000       3.96000
       2924.06       4.11000       3.87000
       2937.91       4.17000       3.78000
       2951.90       4.25000       3.70000
       2966.03       4.33000       3.58000
       2980.29       4.34000       3.41000
       2994.69       4.29000       3.32000
       3009.22       4.30000       3.31000
       3023.90       4.33000       3.24000
       3061.23       4.34000       3.06000
       3099.50       4.34000       2.92000
       3138.73       4.32000       2.81000
       3178.97       4.31000       2.72000
       3220.26       4.30000       2.64000
       3262.63       4.30000       2.57000
       3306.13       4.29000       2.51000
       3350.81       4.30000       2.46000
       3396.71       4.30000       2.41000
       3443.89       4.31000       2.37000
       3492.39       4.32000       2.34000
       3542.29       4.34000       2.30000
       3593.62       4.37000       2.27000
       3646.47       4.40000       2.24000
       3700.90       4.44000       2.20000
       3756.97       4.48000       2.15000
       3814.77       4.52000       2.10000
       3874.38       4.55000       2.05000
       3935.87       4.57000       2.00000
       3999.35       4.61000       1.97000
       4025.32       4.62000       1.96000
       4051.63       4.64000       1.95000
       4078.29       4.66000       1.94000
       4105.30       4.69000       1.94000
       4132.67       4.73000       1.93000
       4160.40       4.77000       1.91000
       4188.51       4.80000       1.89000
       4217.01       4.85000       1.87000
       4245.89       4.90000       1.84000
       4275.17       4.95000       1.80000
       4304.86       5.01000       1.75000
       4365.49       5.09000       1.62000
       4396.45       5.13000       1.55000
       4427.86       5.16000       1.46000
       4508.36       5.17000       1.24000
       4591.85       5.10000       1.04000
       4678.49       5.01000      0.890000
       4768.46       4.91000      0.790000
       4861.96       4.82000      0.720000
       4959.20       4.74000      0.660000
       5060.41       4.67000      0.620000
       5165.83       4.61000      0.580000
       5275.75       4.56000      0.550000
       5390.44       4.52000      0.520000
       5510.22       4.47000      0.490000
       5635.45       4.44000      0.460000
       5766.51       4.41000      0.440000
       5903.81       4.38000      0.410000
       6047.81       4.35000       0.00000
       6199.00       4.32000       0.00000
       6357.95       4.29000       0.00000
       6525.26       4.26000       0.00000
       6701.62       4.24000       0.00000
       6887.78       4.21000       0.00000
       7292.94       4.16000       0.00000
       7748.75       4.11000       0.00000
       8265.33       4.06000       0.00000
       8855.71       4.01000       0.00000
       9536.92       3.96000       0.00000
       10331.7       3.92000       0.00000
       11270.9       3.88000       0.00000
       12398.0       3.84000       0.00000
       13775.6       3.80000       0.00000
       15497.5       3.77000       0.00000
       17711.4       3.75000       0.00000
       20663.3       3.72000       0.00000
       24796.0       3.70000       0.00000
       30995.0       3.69000       0.00000
       41326.7       3.67000       0.00000
       61990.0       3.67000       0.00000
       123980.       3.66000       0.00000
