;  Optical constants for Si0.8Ge0.2 (alternate)
; 
;   taken from:
;
;   'Handbook of Optical Constants of Solids II', Ed. by Edward D. Palik,
;   Academic Press, Inc., 1991.
;   
;    Lambda (A)            n            k
;-----------------------------------------
       2213.93       1.28000       3.06000
       2254.18       1.35000       3.11000
       2295.93       1.43000       3.13000
       2339.25       1.47000       3.14000
       2348.11       1.47000       3.15000
       2357.03       1.48000       3.15000
       2366.03       1.48000       3.16000
       2375.10       1.48000       3.17000
       2384.23       1.48000       3.18000
       2393.44       1.48000       3.20000
       2402.71       1.48000       3.21000
       2412.06       1.48000       3.23000
       2421.48       1.48000       3.25000
       2430.98       1.45000       3.27000
       2440.55       1.48000       3.29000
       2450.20       1.48000       3.31000
       2459.92       1.49000       3.34000
       2469.72       1.49000       3.37000
       2479.60       1.50000       3.39000
       2489.56       1.50000       3.42000
       2499.60       1.51000       3.45000
       2509.72       1.51000       3.48000
       2519.92       1.52000       3.52000
       2530.20       1.53000       3.55000
       2540.57       1.54000       3.59000
       2551.03       1.55000       3.62000
       2561.57       1.57000       3.66000
       2572.20       1.58000       3.70000
       2582.92       1.60000       3.74000
       2593.72       1.61000       3.78000
       2604.62       1.63000       3.83000
       2615.61       1.65000       3.88000
       2626.70       1.68000       3.93000
       2637.87       1.70000       3.98000
       2649.15       1.73000       4.03000
       2660.52       1.76000       4.08000
       2671.98       1.79000       4.14000
       2683.55       1.83000       4.20000
       2695.22       1.87000       4.26000
       2706.99       1.92000       4.33000
       2718.86       1.97000       4.39000
       2730.84       2.03000       4.46000
       2742.92       2.10000       4.52000
       2755.11       2.18000       4.59000
       2767.41       2.26000       4.66000
       2779.82       2.35000       4.72000
       2792.34       2.45000       4.78000
       2804.98       2.56000       4.84000
       2817.73       2.68000       4.90000
       2830.59       2.81000       4.94000
       2843.58       2.96000       4.98000
       2856.68       3.13000       5.00000
       2869.91       3.30000       5.00000
       2883.26       3.48000       4.97000
       2896.73       3.64000       4.91000
       2910.33       3.80000       4.83000
       2924.06       3.93000       4.73000
       2937.91       4.03000       4.62000
       2951.90       4.13000       4.51000
       2966.03       4.20000       4.40000
       2980.29       4.25000       4.30000
       2994.69       4.29000       4.21000
       3009.22       4.33000       4.11000
       3023.90       4.36000       4.03000
       3038.73       4.38000       3.95000
       3053.69       4.40000       3.88000
       3068.81       4.41000       3.81000
       3084.08       4.43000       3.75000
       3099.50       4.44000       3.69000
       3115.08       4.45000       3.64000
       3130.81       4.46000       3.59000
       3146.70       4.47000       3.55000
       3162.76       4.48000       3.50000
       3178.97       4.50000       3.46000
       3195.36       4.51000       3.42000
       3211.92       4.52000       3.39000
       3228.65       4.53000       3.36000
       3245.55       4.54000       3.32000
       3262.63       4.56000       3.30000
       3279.89       4.57000       3.27000
       3297.34       4.59000       3.24000
       3314.97       4.60000       3.21000
       3332.80       4.62000       3.19000
       3350.81       4.64000       3.16000
       3369.02       4.65000       3.14000
       3387.43       4.67000       3.12000
       3406.04       4.69000       3.10000
       3424.86       4.71000       3.08000
       3443.89       4.73000       3.06000
       3463.13       4.75000       3.05000
       3482.58       4.77000       3.03000
       3502.26       4.81000       3.05000
       3522.16       4.82000       3.01000
       3542.29       4.86000       3.00000
       3562.64       4.90000       2.99000
       3583.24       4.94000       2.98000
       3604.07       4.98000       2.97000
       3625.15       5.03000       2.96000
       3646.47       5.09000       2.95000
       3668.05       5.15000       2.93000
       3689.88       5.21000       2.91000
       3711.98       5.29000       2.89000
       3734.34       5.37000       2.86000
       3756.97       5.46000       2.82000
       3779.88       5.55000       2.76000
       3803.07       5.64000       2.70000
       3826.54       5.73000       2.61000
       3850.31       5.82000       2.52000
       3874.38       5.89000       2.41000
       3898.74       5.96000       2.30000
       3923.42       6.01000       2.17000
       3948.41       6.06000       2.03000
       3973.72       6.10000       1.88000
       3999.35       6.11000       1.73000
       4025.32       6.11000       1.58000
       4051.63       6.08000       1.44000
       4078.29       6.04000       1.30000
       4105.30       5.99000       1.17000
       4132.67       5.92000       1.06000
       4160.40       5.86000      0.950000
       4188.51       5.78000      0.870000
       4217.01       5.71000      0.790000
       4245.89       5.64000      0.730000
       4275.17       5.57000      0.660000
       4304.86       5.50000      0.600000
       4334.97       5.44000      0.560000
       4365.49       5.38000      0.510000
       4396.45       5.32000      0.480000
       4427.86       5.26000      0.440000
       4459.71       5.21000      0.420000
       4492.03       5.16000      0.390000
       4524.82       5.11000      0.370000
       4558.09       5.06000      0.340000
       4591.85       5.02000      0.320000
       4626.12       4.97000      0.300000
       4660.90       4.93000       0.00000
       4696.21       4.89000       0.00000
       4732.06       4.85000       0.00000
       4768.46       4.82000       0.00000
       4805.43       4.78000       0.00000
       4842.97       4.75000       0.00000
       4881.10       4.71000       0.00000
       4919.84       4.68000       0.00000
       4959.20       4.65000       0.00000
       4999.19       4.62000       0.00000
       5039.84       4.59000       0.00000
       5081.15       4.57000       0.00000
       5123.14       4.54000       0.00000
       5165.83       4.51000       0.00000
       5209.24       4.49000       0.00000
       5253.39       4.46000       0.00000
       5298.29       4.44000       0.00000
       5343.97       4.41000       0.00000
       5390.44       4.39000       0.00000
       5437.72       4.37000       0.00000
       5485.84       4.35000       0.00000
       5534.82       4.33000       0.00000
       5584.68       4.31000       0.00000
       5635.45       4.29000       0.00000
       5687.16       4.27000       0.00000
       5739.81       4.25000       0.00000
       5793.46       4.23000       0.00000
       5848.11       4.21000       0.00000
       5903.81       4.19000       0.00000
       5960.58       4.18000       0.00000
       6018.45       4.16000       0.00000
       6077.45       4.14000       0.00000
       6137.62       4.13000       0.00000
       6199.00       4.11000       0.00000
       6261.62       4.10000       0.00000
       6325.51       4.08000       0.00000
       6390.72       4.07000       0.00000
       6457.29       4.05000       0.00000
       6525.26       4.04000       0.00000
       6594.68       4.03000       0.00000
       6665.59       4.01000       0.00000
       6738.04       4.00000       0.00000
       6812.09       3.99000       0.00000
       6887.78       3.98000       0.00000
       6965.17       3.97000       0.00000
       7044.32       3.95000       0.00000
       7125.29       3.94000       0.00000
       7208.14       3.93000       0.00000
       7292.94       3.92000       0.00000
       7379.76       3.91000       0.00000
       7468.67       3.90000       0.00000
