;  Optical constants for polycrystalline Si3N4
; 
;   taken from:
;
;   'Handbook of Optical Constants of Solids', Ed. by Edward D. Palik,
;   Academic Press, Inc., 1985.
;   
;    Lambda (A)            n            k
;-----------------------------------------
       516.583      0.655000      0.420000
       539.043      0.625000      0.481000
       563.545      0.611000      0.560000
       590.381      0.617000      0.647000
       619.900      0.635000      0.743000
       652.526      0.676000      0.841000
       688.778      0.735000      0.936000
       729.294      0.810000       1.03000
       774.875      0.902000       1.11000
       826.533       1.00100       1.18000
       885.571       1.11100       1.26000
       953.692       1.24700       1.35000
       1033.17       1.41700       1.43000
       1127.09       1.65700       1.52000
       1180.76       1.82700       1.53000
       1239.80       2.00000       1.49000
       1305.05       2.16200       1.44000
       1377.56       2.32600       1.32000
       1458.59       2.49200       1.16000
       1549.75       2.65100      0.962000
       1599.74       2.71100      0.866000
       1653.07       2.75300      0.750000
       1710.07       2.76600      0.612000
       1771.14       2.75200      0.493000
       1836.74       2.72400      0.380000
       1907.38       2.68200      0.273000
       1983.68       2.62000      0.174000
       2066.33       2.54100      0.102000
       2156.17       2.46400     0.0570000
       2254.18       2.39300     0.0290000
       2361.52       2.33100     0.0110000
       2479.60       2.27800    0.00490000
       2610.11       2.23400    0.00120000
       2755.11       2.19800   0.000220000
       2917.18       2.16700       0.00000
       3099.50       2.14100       0.00000
       3542.29       2.09900       0.00000
       4132.67       2.06600       0.00000
       4959.20       2.04100       0.00000
       6199.00       2.02200       0.00000
       8265.33       2.00800       0.00000
       12398.0       1.99800       0.00000
