;  Optical constants for trigonal quartz, extraordinary ray
; 
;   taken from:
;
;   'Handbook of Optical Constants of Solids', Ed. by Edward D. Palik,
;   Academic Press, Inc., 1985.
;   
;    Lambda (A)            n            k
;-----------------------------------------
       36357.8   2.25000e-05       0.00000
       37031.1   3.39000e-05       0.00000
       37729.8   3.93000e-05       0.00000
       38455.3   4.96000e-05       0.00000
       39209.4   5.18000e-05       0.00000
       39993.5   5.79000e-05       0.00000
       40809.7   7.99000e-05       0.00000
       41659.9   0.000107000       0.00000
       42546.3   0.000132000       0.00000
       43471.2   0.000213000       0.00000
       43949.0   0.000265000       0.00000
       44437.3   0.000284000       0.00000
       44936.6   0.000284000       0.00000
       45447.2   0.000256000       0.00000
       46504.1   0.000262000       0.00000
       47611.4   0.000485000       0.00000
       48772.6    0.00180000       0.00000
       49991.9    0.00398000       0.00000
       50624.7    0.00512000       0.00000
       51273.8    0.00518000       0.00000
       52623.1    0.00549000       0.00000
       53324.7    0.00569000       0.00000
       54045.3    0.00572000       0.00000
       55546.6    0.00563000       0.00000
       58814.0    0.00594000       0.00000
       60596.3    0.00632000       0.00000
       61528.5    0.00646000       0.00000
       62489.9    0.00652000       0.00000
       64505.7    0.00657000       0.00000
       66655.9    0.00716000       0.00000
       68954.4    0.00851000       0.00000
       71417.0     0.0106000       0.00000
       74062.1     0.0148000       0.00000
       76910.7     0.0400000       0.00000
       77536.0     0.0520000       0.00000
       78122.2     0.0730000       0.00000
       102548.     0.0680000       0.00000
       105246.     0.0310000       0.00000
       108091.     0.0230000       0.00000
       111093.     0.0220000       0.00000
       113639.     0.0260000       0.00000
       116304.     0.0770000       0.00000
       117628.      0.120000       0.00000
       119097.      0.170000       0.00000
       124992.      0.343000       0.00000
       126575.      0.314000       0.00000
       128198.      0.275000      0.160000
       129863.      0.227000      0.110000
       131572.      0.192000     0.0850000
       133326.      0.177000     0.0800000
       137924.      0.157000     0.0750000
       142851.      0.157000     0.0720000
       148142.      0.168000     0.0770000
       153840.      0.182000     0.0880000
       159995.      0.202000      0.110000
       166662.      0.235000      0.140000
       172410.      0.264000      0.160000
       178568.      0.298000      0.180000
       185183.      0.341000      0.210000
       189746.      0.377000      0.250000
       192306.      0.415000      0.320000
       196078.      0.524000       0.00000
       200000.      0.822000       0.00000
       204082.       1.28000       0.00000
       208335.       1.86000       0.00000
       210528.       2.22000       0.00000
       212768.       2.39000       0.00000
       217394.       2.29000       0.00000
       227278.       1.29000       0.00000
       238103.      0.738000       0.00000
       250010.      0.397000       0.00000
       266681.      0.199000      0.200000
       999839.     0.0159000       0.00000
   1.24992e+06     0.0119000       0.00000
   1.66662e+06    0.00862000       0.00000
   2.50010e+06    0.00696000       0.00000
   4.99919e+06    0.00796000       0.00000
