;  Optical constants for evaporated Ti
; 
;   taken from:
;
;   D. L. Windt, Webster C. Cash, Jr., M. Scott, P. Arendt, B. Newnam,
;   R. F. Fisher, and A. B. Swartzlander, 'Optical Constants for thin films
;   of Ti, Zr, Nb, Mo, Ru, Rh, Pd, Ag, Hf, Ta, W, Re, Ir, Os, Pt, and Au
;   from 24 to 1216 A', App. Opt., 27, 246, 1988.
;   
;    Lambda (A)            n            k
;-----------------------------------------
   23.620	.99832	.00146
   31.600      .99807	.00113
   44.700      .99433	.000783
   67.600      .9867	.00265
   114.00      .9652	.00948
   135.50      .953	.0122	
   171.40      .910	.911
   243.03      .782	.164	
   256.32      .786	.186	
   303.78      .886	.186	
   327.00      .900	.271	
   356.80      .912	.263	
   379.31      .900	.276	
   405.85      .852	.201	
   447.81      .817	.246	
   460.73      .800	.236	
   489.50      .795	.221	
   539.09      .787	.293	
   584.33      .782	.333	
   616.29      .820	.356	
   671.39      .807	.409	
   718.48      .836	.478	
   735.90      .785	.471	
   743.72      .776	.462	
   834.46      .872	.583	
   878.00      .850	.538	
   919.78      .911	.652	
   932.05      .883	.586	
   988.78      .962	.647	
   1025.8      .979	.656	
   1048.2      .946	.683	
   1066.7      .992	.745	
   1085.7      .961	.711	
   1135.0      .992	.767	
   1200.7      1.09	.894
   1215.7      1.25	.962
