;  Optical constants for polycrystalline TiC
; 
;   taken from:
;
;   'Handbook of Optical Constants of Solids II', Ed. by Edward D. Palik,
;   Academic Press, Inc., 1991.
;   
;    Lambda (A)            n            k
;-----------------------------------------
       310.727      0.840000     0.0505000
       317.897      0.853000     0.0101000
       326.263      0.863000     0.0896000
       335.081      0.853000     0.0841000
       344.389      0.839000     0.0797000
       354.229      0.826000     0.0795000
       364.647      0.808000     0.0810000
       375.697      0.785000     0.0830000
       387.438      0.762000     0.0892000
       399.935      0.734000      0.107000
       413.267      0.709000      0.123000
       427.517      0.679000      0.145000
       442.786      0.654000      0.174000
       459.185      0.627000      0.210000
       476.846      0.603000      0.248000
       495.920      0.579000      0.291000
       516.583      0.547000      0.344000
       539.043      0.523000      0.421000
       563.545      0.523000      0.516000
       590.381      0.551000      0.604000
       619.900      0.603000      0.675000
       652.526      0.657000      0.729000
       688.778      0.688000      0.750000
       729.294      0.706000      0.801000
       774.875      0.723000      0.859000
       826.533      0.747000      0.962000
       885.571      0.870000       1.03000
       953.692      0.959000       1.02000
       1033.17      0.942000      0.980000
       1078.09      0.867000      0.960000
       1127.09      0.745000       1.06000
       1180.76      0.725000       1.25000
       1239.80      0.801000       1.44000
       1305.05      0.955000       1.50000
       1377.56       1.00000       1.55000
       1458.59       1.07000       1.63000
       1549.75       1.12000       1.69000
       1653.07       1.21000       1.84000
       1771.14       1.42000       1.89000
       1907.38       1.43000       1.86000
       2066.33       1.52000       2.02000
       2254.18       1.74000       2.20000
       2479.60       1.96000       2.25000
       2755.11       2.16000       2.31000
       3099.50       2.30000       2.33000
       3542.29       2.57000       2.34000
       4132.67       2.78000       2.43000
       4959.20       2.95000       2.38000
       6199.00       3.05000       2.67000
       8265.33       3.51000       3.07000
       12398.0       3.97000       3.78000
       24796.0       5.44000       5.54000
