;  Optical constants for TiN
; 
;   taken from:
;
;   'Handbook of Optical Constants of Solids II', Ed. by Edward D. Palik,
;   Academic Press, Inc., 1991.
;   
;    Lambda (A)            n            k
;-----------------------------------------
       310.727      0.840000     0.0505000
       317.897      0.831000     0.0649000
       326.263      0.834000     0.0731000
       335.081      0.831000     0.0703000
       344.389      0.815000     0.0707000
       354.229      0.801000     0.0739000
       364.647      0.781000     0.0767000
       375.697      0.760000     0.0863000
       387.438      0.737000      0.102000
       399.935      0.715000      0.124000
       413.267      0.698000      0.148000
       427.517      0.681000      0.172000
       442.786      0.658000      0.200000
       459.185      0.633000      0.231000
       476.846      0.602000      0.278000
       495.920      0.583000      0.348000
       516.583      0.589000      0.431000
       539.043      0.628000      0.497000
       563.545      0.667000      0.545000
       590.381      0.702000      0.587000
       619.900      0.749000      0.622000
       652.526      0.793000      0.627000
       688.778      0.811000      0.628000
       729.294      0.791000      0.634000
       774.875      0.747000      0.689000
       826.533      0.759000      0.795000
       885.571      0.793000      0.874000
       953.692      0.860000      0.948000
       1033.17      0.855000      0.976000
       1127.09      0.823000       1.17000
       1239.80       1.00000       1.38000
       1305.05       1.09000       1.43000
       1377.56       1.19000       1.49000
       1458.59       1.28000       1.49000
       1549.75       1.38000       1.53000
       1653.07       1.46000       1.58000
       1771.14       1.55000       1.64000
       1907.38       1.69000       1.66000
       2066.33       1.85000       1.71000
       2254.18       2.06000       1.64000
       2479.60       2.25000       1.54000
       2755.11       2.31000       1.38000
       3099.50       2.27000       1.23000
       3542.29       2.14000       1.06000
       4132.67       1.74000       1.04000
       4959.20       1.20000       1.65000
       6199.00       1.32000       2.69000
       8265.33       1.82000       3.81000
       12398.0       2.69000       5.04000
       24796.0       4.52000       8.25000
